    E(eV)    dE(eV)  Phi(deg)    dPhi      Theta    dTheta   Log10(FDV)
				(deg)      (deg)    (deg)     FDV in s^3/km^3/cm^3
  13.6439    4.5626  112.8750   22.5000  -11.2500   22.5000  -10.1696
  13.6439    4.5626   90.3750   22.5000  -11.2500   22.5000  -10.2840
  13.6439    4.5626  112.8750   22.5000  -33.7500   22.5000  -10.1896
  13.6439    4.5626   90.3750   22.5000  -33.7500   22.5000  -10.2780
  13.6439    4.5626  135.3750   22.5000  -11.2500   22.5000  -10.0942
  13.6439    4.5626  157.8750   22.5000  -11.2500   22.5000  -10.0353
  13.6439    4.5626  135.3750   22.5000  -33.7500   22.5000  -10.1203
  13.6439    4.5626  157.8750   22.5000  -33.7500   22.5000  -10.0645
  13.6439    4.5626  101.6250   45.0000  -56.2500   22.5000  -10.2476
  13.6439    4.5626  146.6250   45.0000  -56.2500   22.5000  -10.1668
  13.6439    4.5626  124.1250   90.0000  -78.7500   22.5000  -10.2491
  13.6439    4.5626  112.8750   22.5000   11.2500   22.5000  -10.1251
  13.6439    4.5626   90.3750   22.5000   11.2500   22.5000  -10.2229
  13.6439    4.5626  112.8750   22.5000   33.7500   22.5000  -10.1726
  13.6439    4.5626   90.3750   22.5000   33.7500   22.5000  -10.2627
  13.6439    4.5626  135.3750   22.5000   11.2500   22.5000  -10.0765
  13.6439    4.5626  157.8750   22.5000   11.2500   22.5000  -10.0314
  13.6439    4.5626  135.3750   22.5000   33.7500   22.5000  -10.1152
  13.6439    4.5626  157.8750   22.5000   33.7500   22.5000  -10.0477
  13.6439    4.5626  101.6250   45.0000   56.2500   22.5000  -10.2482
  13.6439    4.5626  146.6250   45.0000   56.2500   22.5000  -10.1383
  13.6439    4.5626  124.1250   90.0000   78.7500   22.5000  -10.2761
  13.6439    4.5626  225.3750   22.5000  -11.2500   22.5000  -10.1064
  13.6439    4.5626  247.8750   22.5000  -11.2500   22.5000  -10.1890
  13.6439    4.5626  225.3750   22.5000  -33.7500   22.5000  -10.1238
  13.6439    4.5626  247.8750   22.5000  -33.7500   22.5000  -10.1896
  13.6439    4.5626  202.8750   22.5000  -11.2500   22.5000  -10.0594
  13.6439    4.5626  180.3750   22.5000  -11.2500   22.5000  -10.0214
  13.6439    4.5626  202.8750   22.5000  -33.7500   22.5000  -10.0829
  13.6439    4.5626  180.3750   22.5000  -33.7500   22.5000  -10.0468
  13.6439    4.5626  236.6250   45.0000  -56.2500   22.5000  -10.2006
  13.6439    4.5626  191.6250   45.0000  -56.2500   22.5000  -10.1468
  13.6439    4.5626  214.1250   90.0000  -78.7500   22.5000  -10.2399
  13.6439    4.5626  225.3750   22.5000   11.2500   22.5000  -10.1093
  13.6439    4.5626  247.8750   22.5000   11.2500   22.5000  -10.1999
  13.6439    4.5626  225.3750   22.5000   33.7500   22.5000  -10.1306
  13.6439    4.5626  247.8750   22.5000   33.7500   22.5000  -10.2061
  13.6439    4.5626  202.8750   22.5000   11.2500   22.5000  -10.0622
  13.6439    4.5626  180.3750   22.5000   11.2500   22.5000  -10.0219
  13.6439    4.5626  202.8750   22.5000   33.7500   22.5000  -10.0732
  13.6439    4.5626  180.3750   22.5000   33.7500   22.5000  -10.0389
  13.6439    4.5626  236.6250   45.0000   56.2500   22.5000  -10.1912
  13.6439    4.5626  191.6250   45.0000   56.2500   22.5000  -10.1182
  13.6439    4.5626  214.1250   90.0000   78.7500   22.5000  -10.2561
  13.6439    4.5626   45.3750   22.5000  -11.2500   22.5000  -10.3954
  13.6439    4.5626   67.8750   22.5000  -11.2500   22.5000  -10.3567
  13.6439    4.5626   45.3750   22.5000  -33.7500   22.5000  -10.3512
  13.6439    4.5626   67.8750   22.5000  -33.7500   22.5000  -10.3335
  13.6439    4.5626   22.8750   22.5000  -11.2500   22.5000  -10.4350
  13.6439    4.5626    0.3750   22.5000  -11.2500   22.5000  -10.4584
  13.6439    4.5626   22.8750   22.5000  -33.7500   22.5000  -10.3815
  13.6439    4.5626    0.3750   22.5000  -33.7500   22.5000  -10.3935
  13.6439    4.5626   56.6250   45.0000  -56.2500   22.5000  -10.2902
  13.6439    4.5626   11.6250   45.0000  -56.2500   22.5000  -10.2876
  13.6439    4.5626   34.1250   90.0000  -78.7500   22.5000  -10.2240
  13.6439    4.5626   45.3750   22.5000   11.2500   22.5000  -10.4058
  13.6439    4.5626   67.8750   22.5000   11.2500   22.5000  -10.3457
  13.6439    4.5626   45.3750   22.5000   33.7500   22.5000  -10.3780
  13.6439    4.5626   67.8750   22.5000   33.7500   22.5000  -10.3534
  13.6439    4.5626   22.8750   22.5000   11.2500   22.5000  -10.4384
  13.6439    4.5626    0.3750   22.5000   11.2500   22.5000  -10.4737
  13.6439    4.5626   22.8750   22.5000   33.7500   22.5000  -10.4104
  13.6439    4.5626    0.3750   22.5000   33.7500   22.5000  -10.4267
  13.6439    4.5626   56.6250   45.0000   56.2500   22.5000  -10.3287
  13.6439    4.5626   11.6250   45.0000   56.2500   22.5000  -10.3511
  13.6439    4.5626   34.1250   90.0000   78.7500   22.5000  -10.2851
  13.6439    4.5626  292.8750   22.5000  -11.2500   22.5000  -10.3221
  13.6439    4.5626  270.3750   22.5000  -11.2500   22.5000  -10.2680
  13.6439    4.5626  292.8750   22.5000  -33.7500   22.5000  -10.2961
  13.6439    4.5626  270.3750   22.5000  -33.7500   22.5000  -10.2525
  13.6439    4.5626  315.3750   22.5000  -11.2500   22.5000  -10.3889
  13.6439    4.5626  337.8750   22.5000  -11.2500   22.5000  -10.4349
  13.6439    4.5626  315.3750   22.5000  -33.7500   22.5000  -10.3415
  13.6439    4.5626  337.8750   22.5000  -33.7500   22.5000  -10.3800
  13.6439    4.5626  281.6250   45.0000  -56.2500   22.5000  -10.2427
  13.6439    4.5626  326.6250   45.0000  -56.2500   22.5000  -10.2672
  13.6439    4.5626  304.1250   90.0000  -78.7500   22.5000  -10.2239
  13.6439    4.5626  292.8750   22.5000   11.2500   22.5000  -10.3397
  13.6439    4.5626  270.3750   22.5000   11.2500   22.5000  -10.2874
  13.6439    4.5626  292.8750   22.5000   33.7500   22.5000  -10.3246
  13.6439    4.5626  270.3750   22.5000   33.7500   22.5000  -10.2816
  13.6439    4.5626  315.3750   22.5000   11.2500   22.5000  -10.4030
  13.6439    4.5626  337.8750   22.5000   11.2500   22.5000  -10.4534
  13.6439    4.5626  315.3750   22.5000   33.7500   22.5000  -10.3795
  13.6439    4.5626  337.8750   22.5000   33.7500   22.5000  -10.4169
  13.6439    4.5626  281.6250   45.0000   56.2500   22.5000  -10.2830
  13.6439    4.5626  326.6250   45.0000   56.2500   22.5000  -10.3314
  13.6439    4.5626  304.1250   90.0000   78.7500   22.5000  -10.2684
  18.2066    5.4752  113.6250   22.5000  -11.2500   22.5000  -10.3226
  18.2066    5.4752   91.1250   22.5000  -11.2500   22.5000  -10.4598
  18.2066    5.4752  113.6250   22.5000  -33.7500   22.5000  -10.3413
  18.2066    5.4752   91.1250   22.5000  -33.7500   22.5000  -10.4540
  18.2066    5.4752  136.1250   22.5000  -11.2500   22.5000  -10.2264
  18.2066    5.4752  158.6250   22.5000  -11.2500   22.5000  -10.1573
  18.2066    5.4752  136.1250   22.5000  -33.7500   22.5000  -10.2543
  18.2066    5.4752  158.6250   22.5000  -33.7500   22.5000  -10.1933
  18.2066    5.4752  102.3750   45.0000  -56.2500   22.5000  -10.4317
  18.2066    5.4752  147.3750   45.0000  -56.2500   22.5000  -10.3175
  18.2066    5.4752  124.8750   90.0000  -78.7500   22.5000  -10.4721
  18.2066    5.4752  113.6250   22.5000   11.2500   22.5000  -10.3128
  18.2066    5.4752   91.1250   22.5000   11.2500   22.5000  -10.4269
  18.2066    5.4752  113.6250   22.5000   33.7500   22.5000  -10.3411
  18.2066    5.4752   91.1250   22.5000   33.7500   22.5000  -10.4546
  18.2066    5.4752  136.1250   22.5000   11.2500   22.5000  -10.2300
  18.2066    5.4752  158.6250   22.5000   11.2500   22.5000  -10.1738
  18.2066    5.4752  136.1250   22.5000   33.7500   22.5000  -10.2562
  18.2066    5.4752  158.6250   22.5000   33.7500   22.5000  -10.2017
  18.2066    5.4752  102.3750   45.0000   56.2500   22.5000  -10.4316
  18.2066    5.4752  147.3750   45.0000   56.2500   22.5000  -10.2954
  18.2066    5.4752  124.8750   90.0000   78.7500   22.5000  -10.4600
  18.2066    5.4752  226.1250   22.5000  -11.2500   22.5000  -10.2585
  18.2066    5.4752  248.6250   22.5000  -11.2500   22.5000  -10.3597
  18.2066    5.4752  226.1250   22.5000  -33.7500   22.5000  -10.2719
  18.2066    5.4752  248.6250   22.5000  -33.7500   22.5000  -10.3692
  18.2066    5.4752  203.6250   22.5000  -11.2500   22.5000  -10.1811
  18.2066    5.4752  181.1250   22.5000  -11.2500   22.5000  -10.1364
  18.2066    5.4752  203.6250   22.5000  -33.7500   22.5000  -10.2149
  18.2066    5.4752  181.1250   22.5000  -33.7500   22.5000  -10.1772
  18.2066    5.4752  237.3750   45.0000  -56.2500   22.5000  -10.3631
  18.2066    5.4752  192.3750   45.0000  -56.2500   22.5000  -10.2897
  18.2066    5.4752  214.8750   90.0000  -78.7500   22.5000  -10.4504
  18.2066    5.4752  226.1250   22.5000   11.2500   22.5000  -10.2678
  18.2066    5.4752  248.6250   22.5000   11.2500   22.5000  -10.3742
  18.2066    5.4752  226.1250   22.5000   33.7500   22.5000  -10.2710
  18.2066    5.4752  248.6250   22.5000   33.7500   22.5000  -10.3794
  18.2066    5.4752  203.6250   22.5000   11.2500   22.5000  -10.1814
  18.2066    5.4752  181.1250   22.5000   11.2500   22.5000  -10.1498
  18.2066    5.4752  203.6250   22.5000   33.7500   22.5000  -10.2064
  18.2066    5.4752  181.1250   22.5000   33.7500   22.5000  -10.1759
  18.2066    5.4752  237.3750   45.0000   56.2500   22.5000  -10.3649
  18.2066    5.4752  192.3750   45.0000   56.2500   22.5000  -10.2680
  18.2066    5.4752  214.8750   90.0000   78.7500   22.5000  -10.4234
  18.2066    5.4752   46.1250   22.5000  -11.2500   22.5000  -10.6473
  18.2066    5.4752   68.6250   22.5000  -11.2500   22.5000  -10.5705
  18.2066    5.4752   46.1250   22.5000  -33.7500   22.5000  -10.5881
  18.2066    5.4752   68.6250   22.5000  -33.7500   22.5000  -10.5492
  18.2066    5.4752   23.6250   22.5000  -11.2500   22.5000  -10.6971
  18.2066    5.4752    1.1250   22.5000  -11.2500   22.5000  -10.7337
  18.2066    5.4752   23.6250   22.5000  -33.7500   22.5000  -10.6306
  18.2066    5.4752    1.1250   22.5000  -33.7500   22.5000  -10.6550
  18.2066    5.4752   57.3750   45.0000  -56.2500   22.5000  -10.5152
  18.2066    5.4752   12.3750   45.0000  -56.2500   22.5000  -10.5317
  18.2066    5.4752   34.8750   90.0000  -78.7500   22.5000  -10.4317
  18.2066    5.4752   46.1250   22.5000   11.2500   22.5000  -10.6605
  18.2066    5.4752   68.6250   22.5000   11.2500   22.5000  -10.5775
  18.2066    5.4752   46.1250   22.5000   33.7500   22.5000  -10.6271
  18.2066    5.4752   68.6250   22.5000   33.7500   22.5000  -10.5660
  18.2066    5.4752   23.6250   22.5000   11.2500   22.5000  -10.7195
  18.2066    5.4752    1.1250   22.5000   11.2500   22.5000  -10.7505
  18.2066    5.4752   23.6250   22.5000   33.7500   22.5000  -10.6773
  18.2066    5.4752    1.1250   22.5000   33.7500   22.5000  -10.6942
  18.2066    5.4752   57.3750   45.0000   56.2500   22.5000  -10.5605
  18.2066    5.4752   12.3750   45.0000   56.2500   22.5000  -10.5959
  18.2066    5.4752   34.8750   90.0000   78.7500   22.5000  -10.4992
  18.2066    5.4752  293.6250   22.5000  -11.2500   22.5000  -10.5794
  18.2066    5.4752  271.1250   22.5000  -11.2500   22.5000  -10.4809
  18.2066    5.4752  293.6250   22.5000  -33.7500   22.5000  -10.5248
  18.2066    5.4752  271.1250   22.5000  -33.7500   22.5000  -10.4642
  18.2066    5.4752  316.1250   22.5000  -11.2500   22.5000  -10.6578
  18.2066    5.4752  338.6250   22.5000  -11.2500   22.5000  -10.7134
  18.2066    5.4752  316.1250   22.5000  -33.7500   22.5000  -10.5990
  18.2066    5.4752  338.6250   22.5000  -33.7500   22.5000  -10.6365
  18.2066    5.4752  282.3750   45.0000  -56.2500   22.5000  -10.4532
  18.2066    5.4752  327.3750   45.0000  -56.2500   22.5000  -10.5041
  18.2066    5.4752  304.8750   90.0000  -78.7500   22.5000  -10.4155
  18.2066    5.4752  293.6250   22.5000   11.2500   22.5000  -10.5891
  18.2066    5.4752  271.1250   22.5000   11.2500   22.5000  -10.4940
  18.2066    5.4752  293.6250   22.5000   33.7500   22.5000  -10.5647
  18.2066    5.4752  271.1250   22.5000   33.7500   22.5000  -10.4863
  18.2066    5.4752  316.1250   22.5000   11.2500   22.5000  -10.6744
  18.2066    5.4752  338.6250   22.5000   11.2500   22.5000  -10.7471
  18.2066    5.4752  316.1250   22.5000   33.7500   22.5000  -10.6484
  18.2066    5.4752  338.6250   22.5000   33.7500   22.5000  -10.6942
  18.2066    5.4752  282.3750   45.0000   56.2500   22.5000  -10.4872
  18.2066    5.4752  327.3750   45.0000   56.2500   22.5000  -10.5644
  18.2066    5.4752  304.8750   90.0000   78.7500   22.5000  -10.4665
  24.5942    7.5905  114.3750   22.5000  -11.2500   22.5000  -10.5566
  24.5942    7.5905   91.8750   22.5000  -11.2500   22.5000  -10.7041
  24.5942    7.5905  114.3750   22.5000  -33.7500   22.5000  -10.5702
  24.5942    7.5905   91.8750   22.5000  -33.7500   22.5000  -10.7133
  24.5942    7.5905  136.8750   22.5000  -11.2500   22.5000  -10.4518
  24.5942    7.5905  159.3750   22.5000  -11.2500   22.5000  -10.3646
  24.5942    7.5905  136.8750   22.5000  -33.7500   22.5000  -10.4797
  24.5942    7.5905  159.3750   22.5000  -33.7500   22.5000  -10.4055
  24.5942    7.5905  103.1250   45.0000  -56.2500   22.5000  -10.6827
  24.5942    7.5905  148.1250   45.0000  -56.2500   22.5000  -10.5430
  24.5942    7.5905  125.6250   90.0000  -78.7500   22.5000  -10.7378
  24.5942    7.5905  114.3750   22.5000   11.2500   22.5000  -10.5689
  24.5942    7.5905   91.8750   22.5000   11.2500   22.5000  -10.7014
  24.5942    7.5905  114.3750   22.5000   33.7500   22.5000  -10.5897
  24.5942    7.5905   91.8750   22.5000   33.7500   22.5000  -10.7325
  24.5942    7.5905  136.8750   22.5000   11.2500   22.5000  -10.4642
  24.5942    7.5905  159.3750   22.5000   11.2500   22.5000  -10.3916
  24.5942    7.5905  136.8750   22.5000   33.7500   22.5000  -10.5015
  24.5942    7.5905  159.3750   22.5000   33.7500   22.5000  -10.4236
  24.5942    7.5905  103.1250   45.0000   56.2500   22.5000  -10.6908
  24.5942    7.5905  148.1250   45.0000   56.2500   22.5000  -10.5322
  24.5942    7.5905  125.6250   90.0000   78.7500   22.5000  -10.7211
  24.5942    7.5905  226.8750   22.5000  -11.2500   22.5000  -10.5002
  24.5942    7.5905  249.3750   22.5000  -11.2500   22.5000  -10.6364
  24.5942    7.5905  226.8750   22.5000  -33.7500   22.5000  -10.5142
  24.5942    7.5905  249.3750   22.5000  -33.7500   22.5000  -10.6405
  24.5942    7.5905  204.3750   22.5000  -11.2500   22.5000  -10.3891
  24.5942    7.5905  181.8750   22.5000  -11.2500   22.5000  -10.3383
  24.5942    7.5905  204.3750   22.5000  -33.7500   22.5000  -10.4362
  24.5942    7.5905  181.8750   22.5000  -33.7500   22.5000  -10.3868
  24.5942    7.5905  238.1250   45.0000  -56.2500   22.5000  -10.6188
  24.5942    7.5905  193.1250   45.0000  -56.2500   22.5000  -10.5184
  24.5942    7.5905  215.6250   90.0000  -78.7500   22.5000  -10.7031
  24.5942    7.5905  226.8750   22.5000   11.2500   22.5000  -10.5064
  24.5942    7.5905  249.3750   22.5000   11.2500   22.5000  -10.6413
  24.5942    7.5905  226.8750   22.5000   33.7500   22.5000  -10.5199
  24.5942    7.5905  249.3750   22.5000   33.7500   22.5000  -10.6440
  24.5942    7.5905  204.3750   22.5000   11.2500   22.5000  -10.3951
  24.5942    7.5905  181.8750   22.5000   11.2500   22.5000  -10.3567
  24.5942    7.5905  204.3750   22.5000   33.7500   22.5000  -10.4278
  24.5942    7.5905  181.8750   22.5000   33.7500   22.5000  -10.3913
  24.5942    7.5905  238.1250   45.0000   56.2500   22.5000  -10.6186
  24.5942    7.5905  193.1250   45.0000   56.2500   22.5000  -10.4985
  24.5942    7.5905  215.6250   90.0000   78.7500   22.5000  -10.6824
  24.5942    7.5905   46.8750   22.5000  -11.2500   22.5000  -10.9793
  24.5942    7.5905   69.3750   22.5000  -11.2500   22.5000  -10.8637
  24.5942    7.5905   46.8750   22.5000  -33.7500   22.5000  -10.9146
  24.5942    7.5905   69.3750   22.5000  -33.7500   22.5000  -10.8426
  24.5942    7.5905   24.3750   22.5000  -11.2500   22.5000  -11.0562
  24.5942    7.5905    1.8750   22.5000  -11.2500   22.5000  -11.0973
  24.5942    7.5905   24.3750   22.5000  -33.7500   22.5000  -10.9658
  24.5942    7.5905    1.8750   22.5000  -33.7500   22.5000  -10.9965
  24.5942    7.5905   58.1250   45.0000  -56.2500   22.5000  -10.8047
  24.5942    7.5905   13.1250   45.0000  -56.2500   22.5000  -10.8531
  24.5942    7.5905   35.6250   90.0000  -78.7500   22.5000  -10.7246
  24.5942    7.5905   46.8750   22.5000   11.2500   22.5000  -11.0034
  24.5942    7.5905   69.3750   22.5000   11.2500   22.5000  -10.8708
  24.5942    7.5905   46.8750   22.5000   33.7500   22.5000  -10.9729
  24.5942    7.5905   69.3750   22.5000   33.7500   22.5000  -10.8737
  24.5942    7.5905   24.3750   22.5000   11.2500   22.5000  -11.0744
  24.5942    7.5905    1.8750   22.5000   11.2500   22.5000  -11.1141
  24.5942    7.5905   24.3750   22.5000   33.7500   22.5000  -11.0221
  24.5942    7.5905    1.8750   22.5000   33.7500   22.5000  -11.0607
  24.5942    7.5905   58.1250   45.0000   56.2500   22.5000  -10.8600
  24.5942    7.5905   13.1250   45.0000   56.2500   22.5000  -10.9126
  24.5942    7.5905   35.6250   90.0000   78.7500   22.5000  -10.7953
  24.5942    7.5905  294.3750   22.5000  -11.2500   22.5000  -10.9058
  24.5942    7.5905  271.8750   22.5000  -11.2500   22.5000  -10.7778
  24.5942    7.5905  294.3750   22.5000  -33.7500   22.5000  -10.8465
  24.5942    7.5905  271.8750   22.5000  -33.7500   22.5000  -10.7564
  24.5942    7.5905  316.8750   22.5000  -11.2500   22.5000  -11.0077
  24.5942    7.5905  339.3750   22.5000  -11.2500   22.5000  -11.0767
  24.5942    7.5905  316.8750   22.5000  -33.7500   22.5000  -10.9337
  24.5942    7.5905  339.3750   22.5000  -33.7500   22.5000  -10.9836
  24.5942    7.5905  283.1250   45.0000  -56.2500   22.5000  -10.7462
  24.5942    7.5905  328.1250   45.0000  -56.2500   22.5000  -10.8303
  24.5942    7.5905  305.6250   90.0000  -78.7500   22.5000  -10.6969
  24.5942    7.5905  294.3750   22.5000   11.2500   22.5000  -10.9286
  24.5942    7.5905  271.8750   22.5000   11.2500   22.5000  -10.7992
  24.5942    7.5905  294.3750   22.5000   33.7500   22.5000  -10.8853
  24.5942    7.5905  271.8750   22.5000   33.7500   22.5000  -10.7886
  24.5942    7.5905  316.8750   22.5000   11.2500   22.5000  -11.0307
  24.5942    7.5905  339.3750   22.5000   11.2500   22.5000  -11.0953
  24.5942    7.5905  316.8750   22.5000   33.7500   22.5000  -10.9765
  24.5942    7.5905  339.3750   22.5000   33.7500   22.5000  -11.0374
  24.5942    7.5905  283.1250   45.0000   56.2500   22.5000  -10.7897
  24.5942    7.5905  328.1250   45.0000   56.2500   22.5000  -10.8894
  24.5942    7.5905  305.6250   90.0000   78.7500   22.5000  -10.7603
  33.3877   10.4940  115.1250   22.5000  -11.2500   22.5000  -10.8864
  33.3877   10.4940   92.6250   22.5000  -11.2500   22.5000  -11.0716
  33.3877   10.4940  115.1250   22.5000  -33.7500   22.5000  -10.9097
  33.3877   10.4940   92.6250   22.5000  -33.7500   22.5000  -11.0564
  33.3877   10.4940  137.6250   22.5000  -11.2500   22.5000  -10.7530
  33.3877   10.4940  160.1250   22.5000  -11.2500   22.5000  -10.6769
  33.3877   10.4940  137.6250   22.5000  -33.7500   22.5000  -10.7931
  33.3877   10.4940  160.1250   22.5000  -33.7500   22.5000  -10.7224
  33.3877   10.4940  103.8750   45.0000  -56.2500   22.5000  -11.0119
  33.3877   10.4940  148.8750   45.0000  -56.2500   22.5000  -10.8684
  33.3877   10.4940  126.3750   90.0000  -78.7500   22.5000  -11.0772
  33.3877   10.4940  115.1250   22.5000   11.2500   22.5000  -10.8937
  33.3877   10.4940   92.6250   22.5000   11.2500   22.5000  -11.0605
  33.3877   10.4940  115.1250   22.5000   33.7500   22.5000  -10.9348
  33.3877   10.4940   92.6250   22.5000   33.7500   22.5000  -11.0915
  33.3877   10.4940  137.6250   22.5000   11.2500   22.5000  -10.7719
  33.3877   10.4940  160.1250   22.5000   11.2500   22.5000  -10.6874
  33.3877   10.4940  137.6250   22.5000   33.7500   22.5000  -10.8119
  33.3877   10.4940  160.1250   22.5000   33.7500   22.5000  -10.7417
  33.3877   10.4940  103.8750   45.0000   56.2500   22.5000  -11.0516
  33.3877   10.4940  148.8750   45.0000   56.2500   22.5000  -10.8641
  33.3877   10.4940  126.3750   90.0000   78.7500   22.5000  -11.0766
  33.3877   10.4940  227.6250   22.5000  -11.2500   22.5000  -10.8367
  33.3877   10.4940  250.1250   22.5000  -11.2500   22.5000  -11.0058
  33.3877   10.4940  227.6250   22.5000  -33.7500   22.5000  -10.8633
  33.3877   10.4940  250.1250   22.5000  -33.7500   22.5000  -11.0099
  33.3877   10.4940  205.1250   22.5000  -11.2500   22.5000  -10.7078
  33.3877   10.4940  182.6250   22.5000  -11.2500   22.5000  -10.6546
  33.3877   10.4940  205.1250   22.5000  -33.7500   22.5000  -10.7641
  33.3877   10.4940  182.6250   22.5000  -33.7500   22.5000  -10.7016
  33.3877   10.4940  238.8750   45.0000  -56.2500   22.5000  -10.9713
  33.3877   10.4940  193.8750   45.0000  -56.2500   22.5000  -10.8477
  33.3877   10.4940  216.3750   90.0000  -78.7500   22.5000  -11.0518
  33.3877   10.4940  227.6250   22.5000   11.2500   22.5000  -10.8511
  33.3877   10.4940  250.1250   22.5000   11.2500   22.5000  -11.0169
  33.3877   10.4940  227.6250   22.5000   33.7500   22.5000  -10.8641
  33.3877   10.4940  250.1250   22.5000   33.7500   22.5000  -11.0139
  33.3877   10.4940  205.1250   22.5000   11.2500   22.5000  -10.7158
  33.3877   10.4940  182.6250   22.5000   11.2500   22.5000  -10.6658
  33.3877   10.4940  205.1250   22.5000   33.7500   22.5000  -10.7475
  33.3877   10.4940  182.6250   22.5000   33.7500   22.5000  -10.7092
  33.3877   10.4940  238.8750   45.0000   56.2500   22.5000  -10.9739
  33.3877   10.4940  193.8750   45.0000   56.2500   22.5000  -10.8322
  33.3877   10.4940  216.3750   90.0000   78.7500   22.5000  -11.0440
  33.3877   10.4940   47.6250   22.5000  -11.2500   22.5000  -11.3740
  33.3877   10.4940   70.1250   22.5000  -11.2500   22.5000  -11.2541
  33.3877   10.4940   47.6250   22.5000  -33.7500   22.5000  -11.3116
  33.3877   10.4940   70.1250   22.5000  -33.7500   22.5000  -11.2125
  33.3877   10.4940   25.1250   22.5000  -11.2500   22.5000  -11.4675
  33.3877   10.4940    2.6250   22.5000  -11.2500   22.5000  -11.5115
  33.3877   10.4940   25.1250   22.5000  -33.7500   22.5000  -11.3828
  33.3877   10.4940    2.6250   22.5000  -33.7500   22.5000  -11.4016
  33.3877   10.4940   58.8750   45.0000  -56.2500   22.5000  -11.1630
  33.3877   10.4940   13.8750   45.0000  -56.2500   22.5000  -11.2527
  33.3877   10.4940   36.3750   90.0000  -78.7500   22.5000  -11.0999
  33.3877   10.4940   47.6250   22.5000   11.2500   22.5000  -11.4049
  33.3877   10.4940   70.1250   22.5000   11.2500   22.5000  -11.2739
  33.3877   10.4940   47.6250   22.5000   33.7500   22.5000  -11.3769
  33.3877   10.4940   70.1250   22.5000   33.7500   22.5000  -11.2475
  33.3877   10.4940   25.1250   22.5000   11.2500   22.5000  -11.4839
  33.3877   10.4940    2.6250   22.5000   11.2500   22.5000  -11.5265
  33.3877   10.4940   25.1250   22.5000   33.7500   22.5000  -11.4368
  33.3877   10.4940    2.6250   22.5000   33.7500   22.5000  -11.4509
  33.3877   10.4940   58.8750   45.0000   56.2500   22.5000  -11.2501
  33.3877   10.4940   13.8750   45.0000   56.2500   22.5000  -11.3200
  33.3877   10.4940   36.3750   90.0000   78.7500   22.5000  -11.1757
  33.3877   10.4940  295.1250   22.5000  -11.2500   22.5000  -11.2950
  33.3877   10.4940  272.6250   22.5000  -11.2500   22.5000  -11.1766
  33.3877   10.4940  295.1250   22.5000  -33.7500   22.5000  -11.2500
  33.3877   10.4940  272.6250   22.5000  -33.7500   22.5000  -11.1396
  33.3877   10.4940  317.6250   22.5000  -11.2500   22.5000  -11.4058
  33.3877   10.4940  340.1250   22.5000  -11.2500   22.5000  -11.4803
  33.3877   10.4940  317.6250   22.5000  -33.7500   22.5000  -11.3450
  33.3877   10.4940  340.1250   22.5000  -33.7500   22.5000  -11.4015
  33.3877   10.4940  283.8750   45.0000  -56.2500   22.5000  -11.1259
  33.3877   10.4940  328.8750   45.0000  -56.2500   22.5000  -11.2317
  33.3877   10.4940  306.3750   90.0000  -78.7500   22.5000  -11.0759
  33.3877   10.4940  295.1250   22.5000   11.2500   22.5000  -11.3198
  33.3877   10.4940  272.6250   22.5000   11.2500   22.5000  -11.1858
  33.3877   10.4940  295.1250   22.5000   33.7500   22.5000  -11.2758
  33.3877   10.4940  272.6250   22.5000   33.7500   22.5000  -11.1613
  33.3877   10.4940  317.6250   22.5000   11.2500   22.5000  -11.4476
  33.3877   10.4940  340.1250   22.5000   11.2500   22.5000  -11.5061
  33.3877   10.4940  317.6250   22.5000   33.7500   22.5000  -11.3917
  33.3877   10.4940  340.1250   22.5000   33.7500   22.5000  -11.4452
  33.3877   10.4940  283.8750   45.0000   56.2500   22.5000  -11.1638
  33.3877   10.4940  328.8750   45.0000   56.2500   22.5000  -11.2867
  33.3877   10.4940  306.3750   90.0000   78.7500   22.5000  -11.1391
  45.5823   14.6004  115.8750   22.5000  -11.2500   22.5000  -11.3137
  45.5823   14.6004   93.3750   22.5000  -11.2500   22.5000  -11.5198
  45.5823   14.6004  115.8750   22.5000  -33.7500   22.5000  -11.3303
  45.5823   14.6004   93.3750   22.5000  -33.7500   22.5000  -11.4998
  45.5823   14.6004  138.3750   22.5000  -11.2500   22.5000  -11.1419
  45.5823   14.6004  160.8750   22.5000  -11.2500   22.5000  -11.0691
  45.5823   14.6004  138.3750   22.5000  -33.7500   22.5000  -11.2032
  45.5823   14.6004  160.8750   22.5000  -33.7500   22.5000  -11.1385
  45.5823   14.6004  104.6250   45.0000  -56.2500   22.5000  -11.4197
  45.5823   14.6004  149.6250   45.0000  -56.2500   22.5000  -11.2891
  45.5823   14.6004  127.1250   90.0000  -78.7500   22.5000  -11.5016
  45.5823   14.6004  115.8750   22.5000   11.2500   22.5000  -11.3105
  45.5823   14.6004   93.3750   22.5000   11.2500   22.5000  -11.5579
  45.5823   14.6004  115.8750   22.5000   33.7500   22.5000  -11.3762
  45.5823   14.6004   93.3750   22.5000   33.7500   22.5000  -11.5660
  45.5823   14.6004  138.3750   22.5000   11.2500   22.5000  -11.1334
  45.5823   14.6004  160.8750   22.5000   11.2500   22.5000  -11.0778
  45.5823   14.6004  138.3750   22.5000   33.7500   22.5000  -11.2239
  45.5823   14.6004  160.8750   22.5000   33.7500   22.5000  -11.1382
  45.5823   14.6004  104.6250   45.0000   56.2500   22.5000  -11.5298
  45.5823   14.6004  149.6250   45.0000   56.2500   22.5000  -11.3170
  45.5823   14.6004  127.1250   90.0000   78.7500   22.5000  -11.5466
  45.5823   14.6004  228.3750   22.5000  -11.2500   22.5000  -11.3157
  45.5823   14.6004  250.8750   22.5000  -11.2500   22.5000  -11.4884
  45.5823   14.6004  228.3750   22.5000  -33.7500   22.5000  -11.3513
  45.5823   14.6004  250.8750   22.5000  -33.7500   22.5000  -11.4947
  45.5823   14.6004  205.8750   22.5000  -11.2500   22.5000  -11.1596
  45.5823   14.6004  183.3750   22.5000  -11.2500   22.5000  -11.0877
  45.5823   14.6004  205.8750   22.5000  -33.7500   22.5000  -11.2199
  45.5823   14.6004  183.3750   22.5000  -33.7500   22.5000  -11.1385
  45.5823   14.6004  239.6250   45.0000  -56.2500   22.5000  -11.4366
  45.5823   14.6004  194.6250   45.0000  -56.2500   22.5000  -11.2891
  45.5823   14.6004  217.1250   90.0000  -78.7500   22.5000  -11.4876
  45.5823   14.6004  228.3750   22.5000   11.2500   22.5000  -11.3206
  45.5823   14.6004  250.8750   22.5000   11.2500   22.5000  -11.4861
  45.5823   14.6004  228.3750   22.5000   33.7500   22.5000  -11.3263
  45.5823   14.6004  250.8750   22.5000   33.7500   22.5000  -11.4709
  45.5823   14.6004  205.8750   22.5000   11.2500   22.5000  -11.1612
  45.5823   14.6004  183.3750   22.5000   11.2500   22.5000  -11.0912
  45.5823   14.6004  205.8750   22.5000   33.7500   22.5000  -11.1865
  45.5823   14.6004  183.3750   22.5000   33.7500   22.5000  -11.1348
  45.5823   14.6004  239.6250   45.0000   56.2500   22.5000  -11.4346
  45.5823   14.6004  194.6250   45.0000   56.2500   22.5000  -11.2811
  45.5823   14.6004  217.1250   90.0000   78.7500   22.5000  -11.4996
  45.5823   14.6004   48.3750   22.5000  -11.2500   22.5000  -11.8686
  45.5823   14.6004   70.8750   22.5000  -11.2500   22.5000  -11.7366
  45.5823   14.6004   48.3750   22.5000  -33.7500   22.5000  -11.7768
  45.5823   14.6004   70.8750   22.5000  -33.7500   22.5000  -11.6556
  45.5823   14.6004   25.8750   22.5000  -11.2500   22.5000  -11.9482
  45.5823   14.6004    3.3750   22.5000  -11.2500   22.5000  -11.9779
  45.5823   14.6004   25.8750   22.5000  -33.7500   22.5000  -11.8722
  45.5823   14.6004    3.3750   22.5000  -33.7500   22.5000  -11.9033
  45.5823   14.6004   59.6250   45.0000  -56.2500   22.5000  -11.6119
  45.5823   14.6004   14.6250   45.0000  -56.2500   22.5000  -11.7314
  45.5823   14.6004   37.1250   90.0000  -78.7500   22.5000  -11.5654
  45.5823   14.6004   48.3750   22.5000   11.2500   22.5000  -11.9026
  45.5823   14.6004   70.8750   22.5000   11.2500   22.5000  -11.7490
  45.5823   14.6004   48.3750   22.5000   33.7500   22.5000  -11.8850
  45.5823   14.6004   70.8750   22.5000   33.7500   22.5000  -11.7345
  45.5823   14.6004   25.8750   22.5000   11.2500   22.5000  -11.9859
  45.5823   14.6004    3.3750   22.5000   11.2500   22.5000  -12.0058
  45.5823   14.6004   25.8750   22.5000   33.7500   22.5000  -11.9346
  45.5823   14.6004    3.3750   22.5000   33.7500   22.5000  -11.9573
  45.5823   14.6004   59.6250   45.0000   56.2500   22.5000  -11.7332
  45.5823   14.6004   14.6250   45.0000   56.2500   22.5000  -11.8170
  45.5823   14.6004   37.1250   90.0000   78.7500   22.5000  -11.6554
  45.5823   14.6004  295.8750   22.5000  -11.2500   22.5000  -11.8050
  45.5823   14.6004  273.3750   22.5000  -11.2500   22.5000  -11.6537
  45.5823   14.6004  295.8750   22.5000  -33.7500   22.5000  -11.7364
  45.5823   14.6004  273.3750   22.5000  -33.7500   22.5000  -11.6280
  45.5823   14.6004  318.3750   22.5000  -11.2500   22.5000  -11.9117
  45.5823   14.6004  340.8750   22.5000  -11.2500   22.5000  -11.9724
  45.5823   14.6004  318.3750   22.5000  -33.7500   22.5000  -11.8355
  45.5823   14.6004  340.8750   22.5000  -33.7500   22.5000  -11.8823
  45.5823   14.6004  284.6250   45.0000  -56.2500   22.5000  -11.6102
  45.5823   14.6004  329.6250   45.0000  -56.2500   22.5000  -11.7192
  45.5823   14.6004  307.1250   90.0000  -78.7500   22.5000  -11.5413
  45.5823   14.6004  295.8750   22.5000   11.2500   22.5000  -11.8029
  45.5823   14.6004  273.3750   22.5000   11.2500   22.5000  -11.6742
  45.5823   14.6004  295.8750   22.5000   33.7500   22.5000  -11.7497
  45.5823   14.6004  273.3750   22.5000   33.7500   22.5000  -11.6282
  45.5823   14.6004  318.3750   22.5000   11.2500   22.5000  -11.9350
  45.5823   14.6004  340.8750   22.5000   11.2500   22.5000  -12.0058
  45.5823   14.6004  318.3750   22.5000   33.7500   22.5000  -11.8617
  45.5823   14.6004  340.8750   22.5000   33.7500   22.5000  -11.9311
  45.5823   14.6004  284.6250   45.0000   56.2500   22.5000  -11.6272
  45.5823   14.6004  329.6250   45.0000   56.2500   22.5000  -11.7590
  45.5823   14.6004  307.1250   90.0000   78.7500   22.5000  -11.6168
  62.5885   20.3659  116.6250   22.5000  -11.2500   22.5000  -11.7998
  62.5885   20.3659   94.1250   22.5000  -11.2500   22.5000  -12.0745
  62.5885   20.3659  116.6250   22.5000  -33.7500   22.5000  -11.8485
  62.5885   20.3659   94.1250   22.5000  -33.7500   22.5000  -11.9922
  62.5885   20.3659  139.1250   22.5000  -11.2500   22.5000  -11.5750
  62.5885   20.3659  161.6250   22.5000  -11.2500   22.5000  -11.5496
  62.5885   20.3659  139.1250   22.5000  -33.7500   22.5000  -11.7072
  62.5885   20.3659  161.6250   22.5000  -33.7500   22.5000  -11.6564
  62.5885   20.3659  105.3750   45.0000  -56.2500   22.5000  -11.8431
  62.5885   20.3659  150.3750   45.0000  -56.2500   22.5000  -11.7706
  62.5885   20.3659  127.8750   90.0000  -78.7500   22.5000  -11.9803
  62.5885   20.3659  116.6250   22.5000   11.2500   22.5000  -11.7670
  62.5885   20.3659   94.1250   22.5000   11.2500   22.5000  -12.0890
  62.5885   20.3659  116.6250   22.5000   33.7500   22.5000  -11.8696
  62.5885   20.3659   94.1250   22.5000   33.7500   22.5000  -12.1302
  62.5885   20.3659  139.1250   22.5000   11.2500   22.5000  -11.5203
  62.5885   20.3659  161.6250   22.5000   11.2500   22.5000  -11.4955
  62.5885   20.3659  139.1250   22.5000   33.7500   22.5000  -11.6644
  62.5885   20.3659  161.6250   22.5000   33.7500   22.5000  -11.6012
  62.5885   20.3659  105.3750   45.0000   56.2500   22.5000  -12.0733
  62.5885   20.3659  150.3750   45.0000   56.2500   22.5000  -11.8508
  62.5885   20.3659  127.8750   90.0000   78.7500   22.5000  -12.0900
  62.5885   20.3659  229.1250   22.5000  -11.2500   22.5000  -11.9017
  62.5885   20.3659  251.6250   22.5000  -11.2500   22.5000  -12.0394
  62.5885   20.3659  229.1250   22.5000  -33.7500   22.5000  -11.9152
  62.5885   20.3659  251.6250   22.5000  -33.7500   22.5000  -12.0409
  62.5885   20.3659  206.6250   22.5000  -11.2500   22.5000  -11.7510
  62.5885   20.3659  184.1250   22.5000  -11.2500   22.5000  -11.6409
  62.5885   20.3659  206.6250   22.5000  -33.7500   22.5000  -11.7913
  62.5885   20.3659  184.1250   22.5000  -33.7500   22.5000  -11.6926
  62.5885   20.3659  240.3750   45.0000  -56.2500   22.5000  -11.9801
  62.5885   20.3659  195.3750   45.0000  -56.2500   22.5000  -11.8121
  62.5885   20.3659  217.8750   90.0000  -78.7500   22.5000  -12.0009
  62.5885   20.3659  229.1250   22.5000   11.2500   22.5000  -11.8847
  62.5885   20.3659  251.6250   22.5000   11.2500   22.5000  -12.0311
  62.5885   20.3659  229.1250   22.5000   33.7500   22.5000  -11.8586
  62.5885   20.3659  251.6250   22.5000   33.7500   22.5000  -12.0112
  62.5885   20.3659  206.6250   22.5000   11.2500   22.5000  -11.7357
  62.5885   20.3659  184.1250   22.5000   11.2500   22.5000  -11.6082
  62.5885   20.3659  206.6250   22.5000   33.7500   22.5000  -11.7395
  62.5885   20.3659  184.1250   22.5000   33.7500   22.5000  -11.6471
  62.5885   20.3659  240.3750   45.0000   56.2500   22.5000  -11.9723
  62.5885   20.3659  195.3750   45.0000   56.2500   22.5000  -11.8256
  62.5885   20.3659  217.8750   90.0000   78.7500   22.5000  -12.0529
  62.5885   20.3659   49.1250   22.5000  -11.2500   22.5000  -12.3753
  62.5885   20.3659   71.6250   22.5000  -11.2500   22.5000  -12.2577
  62.5885   20.3659   49.1250   22.5000  -33.7500   22.5000  -12.2760
  62.5885   20.3659   71.6250   22.5000  -33.7500   22.5000  -12.1512
  62.5885   20.3659   26.6250   22.5000  -11.2500   22.5000  -12.4495
  62.5885   20.3659    4.1250   22.5000  -11.2500   22.5000  -12.4977
  62.5885   20.3659   26.6250   22.5000  -33.7500   22.5000  -12.3669
  62.5885   20.3659    4.1250   22.5000  -33.7500   22.5000  -12.4102
  62.5885   20.3659   60.3750   45.0000  -56.2500   22.5000  -12.0604
  62.5885   20.3659   15.3750   45.0000  -56.2500   22.5000  -12.2404
  62.5885   20.3659   37.8750   90.0000  -78.7500   22.5000  -12.0721
  62.5885   20.3659   49.1250   22.5000   11.2500   22.5000  -12.4102
  62.5885   20.3659   71.6250   22.5000   11.2500   22.5000  -12.2800
  62.5885   20.3659   49.1250   22.5000   33.7500   22.5000  -12.3751
  62.5885   20.3659   71.6250   22.5000   33.7500   22.5000  -12.2848
  62.5885   20.3659   26.6250   22.5000   11.2500   22.5000  -12.4790
  62.5885   20.3659    4.1250   22.5000   11.2500   22.5000  -12.5164
  62.5885   20.3659   26.6250   22.5000   33.7500   22.5000  -12.4160
  62.5885   20.3659    4.1250   22.5000   33.7500   22.5000  -12.4631
  62.5885   20.3659   60.3750   45.0000   56.2500   22.5000  -12.2691
  62.5885   20.3659   15.3750   45.0000   56.2500   22.5000  -12.3250
  62.5885   20.3659   37.8750   90.0000   78.7500   22.5000  -12.1964
  62.5885   20.3659  296.6250   22.5000  -11.2500   22.5000  -12.3273
  62.5885   20.3659  274.1250   22.5000  -11.2500   22.5000  -12.2035
  62.5885   20.3659  296.6250   22.5000  -33.7500   22.5000  -12.2814
  62.5885   20.3659  274.1250   22.5000  -33.7500   22.5000  -12.1766
  62.5885   20.3659  319.1250   22.5000  -11.2500   22.5000  -12.4401
  62.5885   20.3659  341.6250   22.5000  -11.2500   22.5000  -12.4910
  62.5885   20.3659  319.1250   22.5000  -33.7500   22.5000  -12.3701
  62.5885   20.3659  341.6250   22.5000  -33.7500   22.5000  -12.4112
  62.5885   20.3659  285.3750   45.0000  -56.2500   22.5000  -12.1640
  62.5885   20.3659  330.3750   45.0000  -56.2500   22.5000  -12.2709
  62.5885   20.3659  307.8750   90.0000  -78.7500   22.5000  -12.0865
  62.5885   20.3659  296.6250   22.5000   11.2500   22.5000  -12.3599
  62.5885   20.3659  274.1250   22.5000   11.2500   22.5000  -12.1974
  62.5885   20.3659  296.6250   22.5000   33.7500   22.5000  -12.2989
  62.5885   20.3659  274.1250   22.5000   33.7500   22.5000  -12.1501
  62.5885   20.3659  319.1250   22.5000   11.2500   22.5000  -12.4498
  62.5885   20.3659  341.6250   22.5000   11.2500   22.5000  -12.5364
  62.5885   20.3659  319.1250   22.5000   33.7500   22.5000  -12.4031
  62.5885   20.3659  341.6250   22.5000   33.7500   22.5000  -12.4360
  62.5885   20.3659  285.3750   45.0000   56.2500   22.5000  -12.1620
  62.5885   20.3659  330.3750   45.0000   56.2500   22.5000  -12.3018
  62.5885   20.3659  307.8750   90.0000   78.7500   22.5000  -12.1669
  86.3141   28.2883  117.3750   22.5000  -11.2500   22.5000  -12.3197
  86.3141   28.2883   94.8750   22.5000  -11.2500   22.5000  -12.6416
  86.3141   28.2883  117.3750   22.5000  -33.7500   22.5000  -12.3811
  86.3141   28.2883   94.8750   22.5000  -33.7500   22.5000  -12.5024
  86.3141   28.2883  139.8750   22.5000  -11.2500   22.5000  -12.0191
  86.3141   28.2883  162.3750   22.5000  -11.2500   22.5000  -12.0547
  86.3141   28.2883  139.8750   22.5000  -33.7500   22.5000  -12.2603
  86.3141   28.2883  162.3750   22.5000  -33.7500   22.5000  -12.2458
  86.3141   28.2883  106.1250   45.0000  -56.2500   22.5000  -12.2602
  86.3141   28.2883  151.1250   45.0000  -56.2500   22.5000  -12.2613
  86.3141   28.2883  128.6250   90.0000  -78.7500   22.5000  -12.4619
  86.3141   28.2883  117.3750   22.5000   11.2500   22.5000  -12.2469
  86.3141   28.2883   94.8750   22.5000   11.2500   22.5000  -12.6434
  86.3141   28.2883  117.3750   22.5000   33.7500   22.5000  -12.4189
  86.3141   28.2883   94.8750   22.5000   33.7500   22.5000  -12.6841
  86.3141   28.2883  139.8750   22.5000   11.2500   22.5000  -11.8894
  86.3141   28.2883  162.3750   22.5000   11.2500   22.5000  -11.9335
  86.3141   28.2883  139.8750   22.5000   33.7500   22.5000  -12.1346
  86.3141   28.2883  162.3750   22.5000   33.7500   22.5000  -12.0796
  86.3141   28.2883  106.1250   45.0000   56.2500   22.5000  -12.6544
  86.3141   28.2883  151.1250   45.0000   56.2500   22.5000  -12.4169
  86.3141   28.2883  128.6250   90.0000   78.7500   22.5000  -12.6673
  86.3141   28.2883  229.8750   22.5000  -11.2500   22.5000  -12.5089
  86.3141   28.2883  252.3750   22.5000  -11.2500   22.5000  -12.6223
  86.3141   28.2883  229.8750   22.5000  -33.7500   22.5000  -12.4962
  86.3141   28.2883  252.3750   22.5000  -33.7500   22.5000  -12.6141
  86.3141   28.2883  207.3750   22.5000  -11.2500   22.5000  -12.3903
  86.3141   28.2883  184.8750   22.5000  -11.2500   22.5000  -12.2925
  86.3141   28.2883  207.3750   22.5000  -33.7500   22.5000  -12.3954
  86.3141   28.2883  184.8750   22.5000  -33.7500   22.5000  -12.3181
  86.3141   28.2883  241.1250   45.0000  -56.2500   22.5000  -12.5283
  86.3141   28.2883  196.1250   45.0000  -56.2500   22.5000  -12.3343
  86.3141   28.2883  218.6250   90.0000  -78.7500   22.5000  -12.5225
  86.3141   28.2883  229.8750   22.5000   11.2500   22.5000  -12.4765
  86.3141   28.2883  252.3750   22.5000   11.2500   22.5000  -12.6033
  86.3141   28.2883  229.8750   22.5000   33.7500   22.5000  -12.4856
  86.3141   28.2883  252.3750   22.5000   33.7500   22.5000  -12.5925
  86.3141   28.2883  207.3750   22.5000   11.2500   22.5000  -12.3651
  86.3141   28.2883  184.8750   22.5000   11.2500   22.5000  -12.2117
  86.3141   28.2883  207.3750   22.5000   33.7500   22.5000  -12.3475
  86.3141   28.2883  184.8750   22.5000   33.7500   22.5000  -12.2140
  86.3141   28.2883  241.1250   45.0000   56.2500   22.5000  -12.5641
  86.3141   28.2883  196.1250   45.0000   56.2500   22.5000  -12.4159
  86.3141   28.2883  218.6250   90.0000   78.7500   22.5000  -12.6378
  86.3141   28.2883   49.8750   22.5000  -11.2500   22.5000  -12.8673
  86.3141   28.2883   72.3750   22.5000  -11.2500   22.5000  -12.7759
  86.3141   28.2883   49.8750   22.5000  -33.7500   22.5000  -12.7715
  86.3141   28.2883   72.3750   22.5000  -33.7500   22.5000  -12.6237
  86.3141   28.2883   27.3750   22.5000  -11.2500   22.5000  -12.9227
  86.3141   28.2883    4.8750   22.5000  -11.2500   22.5000  -12.9635
  86.3141   28.2883   27.3750   22.5000  -33.7500   22.5000  -12.8671
  86.3141   28.2883    4.8750   22.5000  -33.7500   22.5000  -12.9133
  86.3141   28.2883   61.1250   45.0000  -56.2500   22.5000  -12.4817
  86.3141   28.2883   16.1250   45.0000  -56.2500   22.5000  -12.7422
  86.3141   28.2883   38.6250   90.0000  -78.7500   22.5000  -12.5744
  86.3141   28.2883   49.8750   22.5000   11.2500   22.5000  -12.9010
  86.3141   28.2883   72.3750   22.5000   11.2500   22.5000  -12.7804
  86.3141   28.2883   49.8750   22.5000   33.7500   22.5000  -12.8475
  86.3141   28.2883   72.3750   22.5000   33.7500   22.5000  -12.7658
  86.3141   28.2883   27.3750   22.5000   11.2500   22.5000  -12.9379
  86.3141   28.2883    4.8750   22.5000   11.2500   22.5000  -12.9901
  86.3141   28.2883   27.3750   22.5000   33.7500   22.5000  -12.8747
  86.3141   28.2883    4.8750   22.5000   33.7500   22.5000  -12.9144
  86.3141   28.2883   61.1250   45.0000   56.2500   22.5000  -12.7924
  86.3141   28.2883   16.1250   45.0000   56.2500   22.5000  -12.8292
  86.3141   28.2883   38.6250   90.0000   78.7500   22.5000  -12.7454
  86.3141   28.2883  297.3750   22.5000  -11.2500   22.5000  -12.8781
  86.3141   28.2883  274.8750   22.5000  -11.2500   22.5000  -12.7348
  86.3141   28.2883  297.3750   22.5000  -33.7500   22.5000  -12.8216
  86.3141   28.2883  274.8750   22.5000  -33.7500   22.5000  -12.7206
  86.3141   28.2883  319.8750   22.5000  -11.2500   22.5000  -12.9349
  86.3141   28.2883  342.3750   22.5000  -11.2500   22.5000  -12.9862
  86.3141   28.2883  319.8750   22.5000  -33.7500   22.5000  -12.8657
  86.3141   28.2883  342.3750   22.5000  -33.7500   22.5000  -12.8939
  86.3141   28.2883  286.1250   45.0000  -56.2500   22.5000  -12.6951
  86.3141   28.2883  331.1250   45.0000  -56.2500   22.5000  -12.7904
  86.3141   28.2883  308.6250   90.0000  -78.7500   22.5000  -12.6226
  86.3141   28.2883  297.3750   22.5000   11.2500   22.5000  -12.8682
  86.3141   28.2883  274.8750   22.5000   11.2500   22.5000  -12.7443
  86.3141   28.2883  297.3750   22.5000   33.7500   22.5000  -12.8132
  86.3141   28.2883  274.8750   22.5000   33.7500   22.5000  -12.7027
  86.3141   28.2883  319.8750   22.5000   11.2500   22.5000  -12.9659
  86.3141   28.2883  342.3750   22.5000   11.2500   22.5000  -13.0057
  86.3141   28.2883  319.8750   22.5000   33.7500   22.5000  -12.8775
  86.3141   28.2883  342.3750   22.5000   33.7500   22.5000  -12.9237
  86.3141   28.2883  286.1250   45.0000   56.2500   22.5000  -12.7095
  86.3141   28.2883  331.1250   45.0000   56.2500   22.5000  -12.8098
  86.3141   28.2883  308.6250   90.0000   78.7500   22.5000  -12.7225
 119.1650   39.1971  118.1250   22.5000  -11.2500   22.5000  -12.8067
 119.1650   39.1971   95.6250   22.5000  -11.2500   22.5000  -13.1300
 119.1650   39.1971  118.1250   22.5000  -33.7500   22.5000  -12.8876
 119.1650   39.1971   95.6250   22.5000  -33.7500   22.5000  -12.9608
 119.1650   39.1971  140.6250   22.5000  -11.2500   22.5000  -12.4196
 119.1650   39.1971  163.1250   22.5000  -11.2500   22.5000  -12.5665
 119.1650   39.1971  140.6250   22.5000  -33.7500   22.5000  -12.7975
 119.1650   39.1971  163.1250   22.5000  -33.7500   22.5000  -12.8077
 119.1650   39.1971  106.8750   45.0000  -56.2500   22.5000  -12.6571
 119.1650   39.1971  151.8750   45.0000  -56.2500   22.5000  -12.7238
 119.1650   39.1971  129.3750   90.0000  -78.7500   22.5000  -12.9194
 119.1650   39.1971  118.1250   22.5000   11.2500   22.5000  -12.6785
 119.1650   39.1971   95.6250   22.5000   11.2500   22.5000  -13.1133
 119.1650   39.1971  118.1250   22.5000   33.7500   22.5000  -12.9021
 119.1650   39.1971   95.6250   22.5000   33.7500   22.5000  -13.1356
 119.1650   39.1971  140.6250   22.5000   11.2500   22.5000  -12.2424
 119.1650   39.1971  163.1250   22.5000   11.2500   22.5000  -12.3970
 119.1650   39.1971  140.6250   22.5000   33.7500   22.5000  -12.5974
 119.1650   39.1971  163.1250   22.5000   33.7500   22.5000  -12.5166
 119.1650   39.1971  106.8750   45.0000   56.2500   22.5000  -13.1143
 119.1650   39.1971  151.8750   45.0000   56.2500   22.5000  -12.9576
 119.1650   39.1971  129.3750   90.0000   78.7500   22.5000  -13.1563
 119.1650   39.1971  230.6250   22.5000  -11.2500   22.5000  -13.0355
 119.1650   39.1971  253.1250   22.5000  -11.2500   22.5000  -13.1025
 119.1650   39.1971  230.6250   22.5000  -33.7500   22.5000  -13.0302
 119.1650   39.1971  253.1250   22.5000  -33.7500   22.5000  -13.0956
 119.1650   39.1971  208.1250   22.5000  -11.2500   22.5000  -12.9570
 119.1650   39.1971  185.6250   22.5000  -11.2500   22.5000  -12.8814
 119.1650   39.1971  208.1250   22.5000  -33.7500   22.5000  -12.9481
 119.1650   39.1971  185.6250   22.5000  -33.7500   22.5000  -12.8788
 119.1650   39.1971  241.8750   45.0000  -56.2500   22.5000  -13.0128
 119.1650   39.1971  196.8750   45.0000  -56.2500   22.5000  -12.7871
 119.1650   39.1971  219.3750   90.0000  -78.7500   22.5000  -12.9964
 119.1650   39.1971  230.6250   22.5000   11.2500   22.5000  -13.0082
 119.1650   39.1971  253.1250   22.5000   11.2500   22.5000  -13.1179
 119.1650   39.1971  230.6250   22.5000   33.7500   22.5000  -13.0183
 119.1650   39.1971  253.1250   22.5000   33.7500   22.5000  -13.1095
 119.1650   39.1971  208.1250   22.5000   11.2500   22.5000  -12.9309
 119.1650   39.1971  185.6250   22.5000   11.2500   22.5000  -12.7872
 119.1650   39.1971  208.1250   22.5000   33.7500   22.5000  -12.9284
 119.1650   39.1971  185.6250   22.5000   33.7500   22.5000  -12.7559
 119.1650   39.1971  241.8750   45.0000   56.2500   22.5000  -13.0983
 119.1650   39.1971  196.8750   45.0000   56.2500   22.5000  -12.9802
 119.1650   39.1971  219.3750   90.0000   78.7500   22.5000  -13.1450
 119.1650   39.1971   50.6250   22.5000  -11.2500   22.5000  -13.2556
 119.1650   39.1971   73.1250   22.5000  -11.2500   22.5000  -13.2248
 119.1650   39.1971   50.6250   22.5000  -33.7500   22.5000  -13.1919
 119.1650   39.1971   73.1250   22.5000  -33.7500   22.5000  -13.0725
 119.1650   39.1971   28.1250   22.5000  -11.2500   22.5000  -13.3104
 119.1650   39.1971    5.6250   22.5000  -11.2500   22.5000  -13.3595
 119.1650   39.1971   28.1250   22.5000  -33.7500   22.5000  -13.2808
 119.1650   39.1971    5.6250   22.5000  -33.7500   22.5000  -13.3352
 119.1650   39.1971   61.8750   45.0000  -56.2500   22.5000  -12.8664
 119.1650   39.1971   16.8750   45.0000  -56.2500   22.5000  -13.1784
 119.1650   39.1971   39.3750   90.0000  -78.7500   22.5000  -13.0185
 119.1650   39.1971   50.6250   22.5000   11.2500   22.5000  -13.2858
 119.1650   39.1971   73.1250   22.5000   11.2500   22.5000  -13.2415
 119.1650   39.1971   50.6250   22.5000   33.7500   22.5000  -13.2782
 119.1650   39.1971   73.1250   22.5000   33.7500   22.5000  -13.2662
 119.1650   39.1971   28.1250   22.5000   11.2500   22.5000  -13.3314
 119.1650   39.1971    5.6250   22.5000   11.2500   22.5000  -13.3814
 119.1650   39.1971   28.1250   22.5000   33.7500   22.5000  -13.3141
 119.1650   39.1971    5.6250   22.5000   33.7500   22.5000  -13.3577
 119.1650   39.1971   61.8750   45.0000   56.2500   22.5000  -13.2396
 119.1650   39.1971   16.8750   45.0000   56.2500   22.5000  -13.2742
 119.1650   39.1971   39.3750   90.0000   78.7500   22.5000  -13.2246
 119.1650   39.1971  298.1250   22.5000  -11.2500   22.5000  -13.2789
 119.1650   39.1971  275.6250   22.5000  -11.2500   22.5000  -13.2096
 119.1650   39.1971  298.1250   22.5000  -33.7500   22.5000  -13.2789
 119.1650   39.1971  275.6250   22.5000  -33.7500   22.5000  -13.1844
 119.1650   39.1971  320.6250   22.5000  -11.2500   22.5000  -13.3518
 119.1650   39.1971  343.1250   22.5000  -11.2500   22.5000  -13.3914
 119.1650   39.1971  320.6250   22.5000  -33.7500   22.5000  -13.2902
 119.1650   39.1971  343.1250   22.5000  -33.7500   22.5000  -13.3057
 119.1650   39.1971  286.8750   45.0000  -56.2500   22.5000  -13.1593
 119.1650   39.1971  331.8750   45.0000  -56.2500   22.5000  -13.2331
 119.1650   39.1971  309.3750   90.0000  -78.7500   22.5000  -13.1046
 119.1650   39.1971  298.1250   22.5000   11.2500   22.5000  -13.3389
 119.1650   39.1971  275.6250   22.5000   11.2500   22.5000  -13.2311
 119.1650   39.1971  298.1250   22.5000   33.7500   22.5000  -13.2591
 119.1650   39.1971  275.6250   22.5000   33.7500   22.5000  -13.1869
 119.1650   39.1971  320.6250   22.5000   11.2500   22.5000  -13.3651
 119.1650   39.1971  343.1250   22.5000   11.2500   22.5000  -13.4136
 119.1650   39.1971  320.6250   22.5000   33.7500   22.5000  -13.3622
 119.1650   39.1971  343.1250   22.5000   33.7500   22.5000  -13.3456
 119.1650   39.1971  286.8750   45.0000   56.2500   22.5000  -13.1967
 119.1650   39.1971  331.8750   45.0000   56.2500   22.5000  -13.2653
 119.1650   39.1971  309.3750   90.0000   78.7500   22.5000  -13.2213
 164.7083   54.4612  118.8750   22.5000  -11.2500   22.5000  -13.2551
 164.7083   54.4612   96.3750   22.5000  -11.2500   22.5000  -13.5413
 164.7083   54.4612  118.8750   22.5000  -33.7500   22.5000  -13.3436
 164.7083   54.4612   96.3750   22.5000  -33.7500   22.5000  -13.4398
 164.7083   54.4612  141.3750   22.5000  -11.2500   22.5000  -12.8318
 164.7083   54.4612  163.8750   22.5000  -11.2500   22.5000  -13.0888
 164.7083   54.4612  141.3750   22.5000  -33.7500   22.5000  -13.2976
 164.7083   54.4612  163.8750   22.5000  -33.7500   22.5000  -13.2907
 164.7083   54.4612  107.6250   45.0000  -56.2500   22.5000  -13.0802
 164.7083   54.4612  152.6250   45.0000  -56.2500   22.5000  -13.1945
 164.7083   54.4612  130.1250   90.0000  -78.7500   22.5000  -13.3716
 164.7083   54.4612  118.8750   22.5000   11.2500   22.5000  -13.1065
 164.7083   54.4612   96.3750   22.5000   11.2500   22.5000  -13.5333
 164.7083   54.4612  118.8750   22.5000   33.7500   22.5000  -13.3575
 164.7083   54.4612   96.3750   22.5000   33.7500   22.5000  -13.5833
 164.7083   54.4612  141.3750   22.5000   11.2500   22.5000  -12.6409
 164.7083   54.4612  163.8750   22.5000   11.2500   22.5000  -12.8903
 164.7083   54.4612  141.3750   22.5000   33.7500   22.5000  -13.0495
 164.7083   54.4612  163.8750   22.5000   33.7500   22.5000  -12.9817
 164.7083   54.4612  107.6250   45.0000   56.2500   22.5000  -13.5517
 164.7083   54.4612  152.6250   45.0000   56.2500   22.5000  -13.4198
 164.7083   54.4612  130.1250   90.0000   78.7500   22.5000  -13.6202
 164.7083   54.4612  231.3750   22.5000  -11.2500   22.5000  -13.4839
 164.7083   54.4612  253.8750   22.5000  -11.2500   22.5000  -13.5506
 164.7083   54.4612  231.3750   22.5000  -33.7500   22.5000  -13.4807
 164.7083   54.4612  253.8750   22.5000  -33.7500   22.5000  -13.5694
 164.7083   54.4612  208.8750   22.5000  -11.2500   22.5000  -13.4529
 164.7083   54.4612  186.3750   22.5000  -11.2500   22.5000  -13.3538
 164.7083   54.4612  208.8750   22.5000  -33.7500   22.5000  -13.4148
 164.7083   54.4612  186.3750   22.5000  -33.7500   22.5000  -13.3718
 164.7083   54.4612  242.6250   45.0000  -56.2500   22.5000  -13.4812
 164.7083   54.4612  197.6250   45.0000  -56.2500   22.5000  -13.2191
 164.7083   54.4612  220.1250   90.0000  -78.7500   22.5000  -13.4422
 164.7083   54.4612  231.3750   22.5000   11.2500   22.5000  -13.4783
 164.7083   54.4612  253.8750   22.5000   11.2500   22.5000  -13.5570
 164.7083   54.4612  231.3750   22.5000   33.7500   22.5000  -13.4994
 164.7083   54.4612  253.8750   22.5000   33.7500   22.5000  -13.5529
 164.7083   54.4612  208.8750   22.5000   11.2500   22.5000  -13.4532
 164.7083   54.4612  186.3750   22.5000   11.2500   22.5000  -13.3137
 164.7083   54.4612  208.8750   22.5000   33.7500   22.5000  -13.4445
 164.7083   54.4612  186.3750   22.5000   33.7500   22.5000  -13.2645
 164.7083   54.4612  242.6250   45.0000   56.2500   22.5000  -13.5377
 164.7083   54.4612  197.6250   45.0000   56.2500   22.5000  -13.4430
 164.7083   54.4612  220.1250   90.0000   78.7500   22.5000  -13.6137
 164.7083   54.4612   51.3750   22.5000  -11.2500   22.5000  -13.6873
 164.7083   54.4612   73.8750   22.5000  -11.2500   22.5000  -13.6264
 164.7083   54.4612   51.3750   22.5000  -33.7500   22.5000  -13.5799
 164.7083   54.4612   73.8750   22.5000  -33.7500   22.5000  -13.4758
 164.7083   54.4612   28.8750   22.5000  -11.2500   22.5000  -13.7631
 164.7083   54.4612    6.3750   22.5000  -11.2500   22.5000  -13.7787
 164.7083   54.4612   28.8750   22.5000  -33.7500   22.5000  -13.6933
 164.7083   54.4612    6.3750   22.5000  -33.7500   22.5000  -13.7126
 164.7083   54.4612   62.6250   45.0000  -56.2500   22.5000  -13.2972
 164.7083   54.4612   17.6250   45.0000  -56.2500   22.5000  -13.5968
 164.7083   54.4612   40.1250   90.0000  -78.7500   22.5000  -13.4730
 164.7083   54.4612   51.3750   22.5000   11.2500   22.5000  -13.6926
 164.7083   54.4612   73.8750   22.5000   11.2500   22.5000  -13.6373
 164.7083   54.4612   51.3750   22.5000   33.7500   22.5000  -13.6738
 164.7083   54.4612   73.8750   22.5000   33.7500   22.5000  -13.6267
 164.7083   54.4612   28.8750   22.5000   11.2500   22.5000  -13.7508
 164.7083   54.4612    6.3750   22.5000   11.2500   22.5000  -13.8063
 164.7083   54.4612   28.8750   22.5000   33.7500   22.5000  -13.7433
 164.7083   54.4612    6.3750   22.5000   33.7500   22.5000  -13.7418
 164.7083   54.4612   62.6250   45.0000   56.2500   22.5000  -13.6748
 164.7083   54.4612   17.6250   45.0000   56.2500   22.5000  -13.6880
 164.7083   54.4612   40.1250   90.0000   78.7500   22.5000  -13.6625
 164.7083   54.4612  298.8750   22.5000  -11.2500   22.5000  -13.7618
 164.7083   54.4612  276.3750   22.5000  -11.2500   22.5000  -13.6406
 164.7083   54.4612  298.8750   22.5000  -33.7500   22.5000  -13.6618
 164.7083   54.4612  276.3750   22.5000  -33.7500   22.5000  -13.6270
 164.7083   54.4612  321.3750   22.5000  -11.2500   22.5000  -13.8031
 164.7083   54.4612  343.8750   22.5000  -11.2500   22.5000  -13.7894
 164.7083   54.4612  321.3750   22.5000  -33.7500   22.5000  -13.7300
 164.7083   54.4612  343.8750   22.5000  -33.7500   22.5000  -13.7153
 164.7083   54.4612  287.6250   45.0000  -56.2500   22.5000  -13.5969
 164.7083   54.4612  332.6250   45.0000  -56.2500   22.5000  -13.6369
 164.7083   54.4612  310.1250   90.0000  -78.7500   22.5000  -13.5439
 164.7083   54.4612  298.8750   22.5000   11.2500   22.5000  -13.7508
 164.7083   54.4612  276.3750   22.5000   11.2500   22.5000  -13.6584
 164.7083   54.4612  298.8750   22.5000   33.7500   22.5000  -13.6836
 164.7083   54.4612  276.3750   22.5000   33.7500   22.5000  -13.6491
 164.7083   54.4612  321.3750   22.5000   11.2500   22.5000  -13.7949
 164.7083   54.4612  343.8750   22.5000   11.2500   22.5000  -13.8048
 164.7083   54.4612  321.3750   22.5000   33.7500   22.5000  -13.7293
 164.7083   54.4612  343.8750   22.5000   33.7500   22.5000  -13.7548
 164.7083   54.4612  287.6250   45.0000   56.2500   22.5000  -13.6256
 164.7083   54.4612  332.6250   45.0000   56.2500   22.5000  -13.6796
 164.7083   54.4612  310.1250   90.0000   78.7500   22.5000  -13.6601
 228.0874   75.6981  119.6250   22.5000  -11.2500   22.5000  -13.7489
 228.0874   75.6981   97.1250   22.5000  -11.2500   22.5000  -14.0080
 228.0874   75.6981  119.6250   22.5000  -33.7500   22.5000  -13.8363
 228.0874   75.6981   97.1250   22.5000  -33.7500   22.5000  -13.8999
 228.0874   75.6981  142.1250   22.5000  -11.2500   22.5000  -13.3085
 228.0874   75.6981  164.6250   22.5000  -11.2500   22.5000  -13.6102
 228.0874   75.6981  142.1250   22.5000  -33.7500   22.5000  -13.7526
 228.0874   75.6981  164.6250   22.5000  -33.7500   22.5000  -13.7759
 228.0874   75.6981  108.3750   45.0000  -56.2500   22.5000  -13.5780
 228.0874   75.6981  153.3750   45.0000  -56.2500   22.5000  -13.6826
 228.0874   75.6981  130.8750   90.0000  -78.7500   22.5000  -13.8308
 228.0874   75.6981  119.6250   22.5000   11.2500   22.5000  -13.5813
 228.0874   75.6981   97.1250   22.5000   11.2500   22.5000  -13.9935
 228.0874   75.6981  119.6250   22.5000   33.7500   22.5000  -13.8356
 228.0874   75.6981   97.1250   22.5000   33.7500   22.5000  -14.0434
 228.0874   75.6981  142.1250   22.5000   11.2500   22.5000  -13.1061
 228.0874   75.6981  164.6250   22.5000   11.2500   22.5000  -13.4421
 228.0874   75.6981  142.1250   22.5000   33.7500   22.5000  -13.5604
 228.0874   75.6981  164.6250   22.5000   33.7500   22.5000  -13.4295
 228.0874   75.6981  108.3750   45.0000   56.2500   22.5000  -14.0117
 228.0874   75.6981  153.3750   45.0000   56.2500   22.5000  -13.8947
 228.0874   75.6981  130.8750   90.0000   78.7500   22.5000  -14.0873
 228.0874   75.6981  232.1250   22.5000  -11.2500   22.5000  -13.9390
 228.0874   75.6981  254.6250   22.5000  -11.2500   22.5000  -14.0395
 228.0874   75.6981  232.1250   22.5000  -33.7500   22.5000  -13.9625
 228.0874   75.6981  254.6250   22.5000  -33.7500   22.5000  -14.0253
 228.0874   75.6981  209.6250   22.5000  -11.2500   22.5000  -13.8999
 228.0874   75.6981  187.1250   22.5000  -11.2500   22.5000  -13.8396
 228.0874   75.6981  209.6250   22.5000  -33.7500   22.5000  -13.8959
 228.0874   75.6981  187.1250   22.5000  -33.7500   22.5000  -13.8363
 228.0874   75.6981  243.3750   45.0000  -56.2500   22.5000  -13.9428
 228.0874   75.6981  198.3750   45.0000  -56.2500   22.5000  -13.6984
 228.0874   75.6981  220.8750   90.0000  -78.7500   22.5000  -13.8824
 228.0874   75.6981  232.1250   22.5000   11.2500   22.5000  -13.9821
 228.0874   75.6981  254.6250   22.5000   11.2500   22.5000  -14.0247
 228.0874   75.6981  232.1250   22.5000   33.7500   22.5000  -13.9639
 228.0874   75.6981  254.6250   22.5000   33.7500   22.5000  -14.0390
 228.0874   75.6981  209.6250   22.5000   11.2500   22.5000  -13.8826
 228.0874   75.6981  187.1250   22.5000   11.2500   22.5000  -13.7934
 228.0874   75.6981  209.6250   22.5000   33.7500   22.5000  -13.9273
 228.0874   75.6981  187.1250   22.5000   33.7500   22.5000  -13.7547
 228.0874   75.6981  243.3750   45.0000   56.2500   22.5000  -14.0337
 228.0874   75.6981  198.3750   45.0000   56.2500   22.5000  -13.9322
 228.0874   75.6981  220.8750   90.0000   78.7500   22.5000  -14.0758
 228.0874   75.6981   52.1250   22.5000  -11.2500   22.5000  -14.1587
 228.0874   75.6981   74.6250   22.5000  -11.2500   22.5000  -14.0929
 228.0874   75.6981   52.1250   22.5000  -33.7500   22.5000  -14.0635
 228.0874   75.6981   74.6250   22.5000  -33.7500   22.5000  -13.9836
 228.0874   75.6981   29.6250   22.5000  -11.2500   22.5000  -14.1739
 228.0874   75.6981    7.1250   22.5000  -11.2500   22.5000  -14.2433
 228.0874   75.6981   29.6250   22.5000  -33.7500   22.5000  -14.1603
 228.0874   75.6981    7.1250   22.5000  -33.7500   22.5000  -14.2090
 228.0874   75.6981   63.3750   45.0000  -56.2500   22.5000  -13.7648
 228.0874   75.6981   18.3750   45.0000  -56.2500   22.5000  -14.0614
 228.0874   75.6981   40.8750   90.0000  -78.7500   22.5000  -13.9316
 228.0874   75.6981   52.1250   22.5000   11.2500   22.5000  -14.1838
 228.0874   75.6981   74.6250   22.5000   11.2500   22.5000  -14.1067
 228.0874   75.6981   52.1250   22.5000   33.7500   22.5000  -14.1617
 228.0874   75.6981   74.6250   22.5000   33.7500   22.5000  -14.1446
 228.0874   75.6981   29.6250   22.5000   11.2500   22.5000  -14.1785
 228.0874   75.6981    7.1250   22.5000   11.2500   22.5000  -14.2678
 228.0874   75.6981   29.6250   22.5000   33.7500   22.5000  -14.2264
 228.0874   75.6981    7.1250   22.5000   33.7500   22.5000  -14.2164
 228.0874   75.6981   63.3750   45.0000   56.2500   22.5000  -14.1139
 228.0874   75.6981   18.3750   45.0000   56.2500   22.5000  -14.1106
 228.0874   75.6981   40.8750   90.0000   78.7500   22.5000  -14.1383
 228.0874   75.6981  299.6250   22.5000  -11.2500   22.5000  -14.1958
 228.0874   75.6981  277.1250   22.5000  -11.2500   22.5000  -14.1015
 228.0874   75.6981  299.6250   22.5000  -33.7500   22.5000  -14.2090
 228.0874   75.6981  277.1250   22.5000  -33.7500   22.5000  -14.0824
 228.0874   75.6981  322.1250   22.5000  -11.2500   22.5000  -14.2393
 228.0874   75.6981  344.6250   22.5000  -11.2500   22.5000  -14.2493
 228.0874   75.6981  322.1250   22.5000  -33.7500   22.5000  -14.1800
 228.0874   75.6981  344.6250   22.5000  -33.7500   22.5000  -14.2188
 228.0874   75.6981  288.3750   45.0000  -56.2500   22.5000  -14.0386
 228.0874   75.6981  333.3750   45.0000  -56.2500   22.5000  -14.0940
 228.0874   75.6981  310.8750   90.0000  -78.7500   22.5000  -13.9951
 228.0874   75.6981  299.6250   22.5000   11.2500   22.5000  -14.1688
 228.0874   75.6981  277.1250   22.5000   11.2500   22.5000  -14.1460
 228.0874   75.6981  299.6250   22.5000   33.7500   22.5000  -14.1464
 228.0874   75.6981  277.1250   22.5000   33.7500   22.5000  -14.0725
 228.0874   75.6981  322.1250   22.5000   11.2500   22.5000  -14.2581
 228.0874   75.6981  344.6250   22.5000   11.2500   22.5000  -14.2947
 228.0874   75.6981  322.1250   22.5000   33.7500   22.5000  -14.2298
 228.0874   75.6981  344.6250   22.5000   33.7500   22.5000  -14.2164
 228.0874   75.6981  288.3750   45.0000   56.2500   22.5000  -14.1023
 228.0874   75.6981  333.3750   45.0000   56.2500   22.5000  -14.1456
 228.0874   75.6981  310.8750   90.0000   78.7500   22.5000  -14.1291
 316.1045  105.1478  120.3750   22.5000  -11.2500   22.5000  -14.2481
 316.1045  105.1478   97.8750   22.5000  -11.2500   22.5000  -14.5062
 316.1045  105.1478  120.3750   22.5000  -33.7500   22.5000  -14.3348
 316.1045  105.1478   97.8750   22.5000  -33.7500   22.5000  -14.4258
 316.1045  105.1478  142.8750   22.5000  -11.2500   22.5000  -13.8561
 316.1045  105.1478  165.3750   22.5000  -11.2500   22.5000  -14.1963
 316.1045  105.1478  142.8750   22.5000  -33.7500   22.5000  -14.2867
 316.1045  105.1478  165.3750   22.5000  -33.7500   22.5000  -14.2814
 316.1045  105.1478  109.1250   45.0000  -56.2500   22.5000  -14.1234
 316.1045  105.1478  154.1250   45.0000  -56.2500   22.5000  -14.2365
 316.1045  105.1478  131.6250   90.0000  -78.7500   22.5000  -14.3787
 316.1045  105.1478  120.3750   22.5000   11.2500   22.5000  -14.1084
 316.1045  105.1478   97.8750   22.5000   11.2500   22.5000  -14.5320
 316.1045  105.1478  120.3750   22.5000   33.7500   22.5000  -14.3704
 316.1045  105.1478   97.8750   22.5000   33.7500   22.5000  -14.5600
 316.1045  105.1478  142.8750   22.5000   11.2500   22.5000  -13.6486
 316.1045  105.1478  165.3750   22.5000   11.2500   22.5000  -14.0342
 316.1045  105.1478  142.8750   22.5000   33.7500   22.5000  -14.1169
 316.1045  105.1478  165.3750   22.5000   33.7500   22.5000  -13.9757
 316.1045  105.1478  109.1250   45.0000   56.2500   22.5000  -14.5416
 316.1045  105.1478  154.1250   45.0000   56.2500   22.5000  -14.4290
 316.1045  105.1478  131.6250   90.0000   78.7500   22.5000  -14.6163
 316.1045  105.1478  232.8750   22.5000  -11.2500   22.5000  -14.4893
 316.1045  105.1478  255.3750   22.5000  -11.2500   22.5000  -14.5505
 316.1045  105.1478  232.8750   22.5000  -33.7500   22.5000  -14.4448
 316.1045  105.1478  255.3750   22.5000  -33.7500   22.5000  -14.5353
 316.1045  105.1478  210.3750   22.5000  -11.2500   22.5000  -14.4119
 316.1045  105.1478  187.8750   22.5000  -11.2500   22.5000  -14.3502
 316.1045  105.1478  210.3750   22.5000  -33.7500   22.5000  -14.4214
 316.1045  105.1478  187.8750   22.5000  -33.7500   22.5000  -14.3333
 316.1045  105.1478  244.1250   45.0000  -56.2500   22.5000  -14.4722
 316.1045  105.1478  199.1250   45.0000  -56.2500   22.5000  -14.2280
 316.1045  105.1478  221.6250   90.0000  -78.7500   22.5000  -14.4415
 316.1045  105.1478  232.8750   22.5000   11.2500   22.5000  -14.5009
 316.1045  105.1478  255.3750   22.5000   11.2500   22.5000  -14.5622
 316.1045  105.1478  232.8750   22.5000   33.7500   22.5000  -14.5190
 316.1045  105.1478  255.3750   22.5000   33.7500   22.5000  -14.5236
 316.1045  105.1478  210.3750   22.5000   11.2500   22.5000  -14.4429
 316.1045  105.1478  187.8750   22.5000   11.2500   22.5000  -14.3445
 316.1045  105.1478  210.3750   22.5000   33.7500   22.5000  -14.4243
 316.1045  105.1478  187.8750   22.5000   33.7500   22.5000  -14.2913
 316.1045  105.1478  244.1250   45.0000   56.2500   22.5000  -14.5659
 316.1045  105.1478  199.1250   45.0000   56.2500   22.5000  -14.4730
 316.1045  105.1478  221.6250   90.0000   78.7500   22.5000  -14.5908
 316.1045  105.1478   52.8750   22.5000  -11.2500   22.5000  -14.6581
 316.1045  105.1478   75.3750   22.5000  -11.2500   22.5000  -14.6217
 316.1045  105.1478   52.8750   22.5000  -33.7500   22.5000  -14.5597
 316.1045  105.1478   75.3750   22.5000  -33.7500   22.5000  -14.4871
 316.1045  105.1478   30.3750   22.5000  -11.2500   22.5000  -14.7240
 316.1045  105.1478    7.8750   22.5000  -11.2500   22.5000  -14.7813
 316.1045  105.1478   30.3750   22.5000  -33.7500   22.5000  -14.7181
 316.1045  105.1478    7.8750   22.5000  -33.7500   22.5000  -14.7422
 316.1045  105.1478   64.1250   45.0000  -56.2500   22.5000  -14.2728
 316.1045  105.1478   19.1250   45.0000  -56.2500   22.5000  -14.5526
 316.1045  105.1478   41.6250   90.0000  -78.7500   22.5000  -14.4649
 316.1045  105.1478   52.8750   22.5000   11.2500   22.5000  -14.7340
 316.1045  105.1478   75.3750   22.5000   11.2500   22.5000  -14.6484
 316.1045  105.1478   52.8750   22.5000   33.7500   22.5000  -14.7075
 316.1045  105.1478   75.3750   22.5000   33.7500   22.5000  -14.6108
 316.1045  105.1478   30.3750   22.5000   11.2500   22.5000  -14.7561
 316.1045  105.1478    7.8750   22.5000   11.2500   22.5000  -14.7963
 316.1045  105.1478   30.3750   22.5000   33.7500   22.5000  -14.7293
 316.1045  105.1478    7.8750   22.5000   33.7500   22.5000  -14.7182
 316.1045  105.1478   64.1250   45.0000   56.2500   22.5000  -14.6586
 316.1045  105.1478   19.1250   45.0000   56.2500   22.5000  -14.6922
 316.1045  105.1478   41.6250   90.0000   78.7500   22.5000  -14.6706
 316.1045  105.1478  300.3750   22.5000  -11.2500   22.5000  -14.7208
 316.1045  105.1478  277.8750   22.5000  -11.2500   22.5000  -14.6622
 316.1045  105.1478  300.3750   22.5000  -33.7500   22.5000  -14.6987
 316.1045  105.1478  277.8750   22.5000  -33.7500   22.5000  -14.5949
 316.1045  105.1478  322.8750   22.5000  -11.2500   22.5000  -14.7706
 316.1045  105.1478  345.3750   22.5000  -11.2500   22.5000  -14.8150
 316.1045  105.1478  322.8750   22.5000  -33.7500   22.5000  -14.7181
 316.1045  105.1478  345.3750   22.5000  -33.7500   22.5000  -14.7384
 316.1045  105.1478  289.1250   45.0000  -56.2500   22.5000  -14.5439
 316.1045  105.1478  334.1250   45.0000  -56.2500   22.5000  -14.6544
 316.1045  105.1478  311.6250   90.0000  -78.7500   22.5000  -14.5263
 316.1045  105.1478  300.3750   22.5000   11.2500   22.5000  -14.7051
 316.1045  105.1478  277.8750   22.5000   11.2500   22.5000  -14.6337
 316.1045  105.1478  300.3750   22.5000   33.7500   22.5000  -14.6282
 316.1045  105.1478  277.8750   22.5000   33.7500   22.5000  -14.6297
 316.1045  105.1478  322.8750   22.5000   11.2500   22.5000  -14.7543
 316.1045  105.1478  345.3750   22.5000   11.2500   22.5000  -14.8020
 316.1045  105.1478  322.8750   22.5000   33.7500   22.5000  -14.6901
 316.1045  105.1478  345.3750   22.5000   33.7500   22.5000  -14.7368
 316.1045  105.1478  289.1250   45.0000   56.2500   22.5000  -14.6509
 316.1045  105.1478  334.1250   45.0000   56.2500   22.5000  -14.6906
 316.1045  105.1478  311.6250   90.0000   78.7500   22.5000  -14.6528
 438.3828  145.9625  121.1250   22.5000  -11.2500   22.5000  -14.9120
 438.3828  145.9625   98.6250   22.5000  -11.2500   22.5000  -15.1252
 438.3828  145.9625  121.1250   22.5000  -33.7500   22.5000  -14.9625
 438.3828  145.9625   98.6250   22.5000  -33.7500   22.5000  -15.0661
 438.3828  145.9625  143.6250   22.5000  -11.2500   22.5000  -14.4622
 438.3828  145.9625  166.1250   22.5000  -11.2500   22.5000  -14.7921
 438.3828  145.9625  143.6250   22.5000  -33.7500   22.5000  -14.9401
 438.3828  145.9625  166.1250   22.5000  -33.7500   22.5000  -14.8642
 438.3828  145.9625  109.8750   45.0000  -56.2500   22.5000  -14.7400
 438.3828  145.9625  154.8750   45.0000  -56.2500   22.5000  -14.8678
 438.3828  145.9625  132.3750   90.0000  -78.7500   22.5000  -15.0112
 438.3828  145.9625  121.1250   22.5000   11.2500   22.5000  -14.7370
 438.3828  145.9625   98.6250   22.5000   11.2500   22.5000  -15.1375
 438.3828  145.9625  121.1250   22.5000   33.7500   22.5000  -14.9897
 438.3828  145.9625   98.6250   22.5000   33.7500   22.5000  -15.1821
 438.3828  145.9625  143.6250   22.5000   11.2500   22.5000  -14.2646
 438.3828  145.9625  166.1250   22.5000   11.2500   22.5000  -14.6840
 438.3828  145.9625  143.6250   22.5000   33.7500   22.5000  -14.7729
 438.3828  145.9625  166.1250   22.5000   33.7500   22.5000  -14.5816
 438.3828  145.9625  109.8750   45.0000   56.2500   22.5000  -15.1890
 438.3828  145.9625  154.8750   45.0000   56.2500   22.5000  -15.0888
 438.3828  145.9625  132.3750   90.0000   78.7500   22.5000  -15.2382
 438.3828  145.9625  233.6250   22.5000  -11.2500   22.5000  -15.1190
 438.3828  145.9625  256.1250   22.5000  -11.2500   22.5000  -15.1574
 438.3828  145.9625  233.6250   22.5000  -33.7500   22.5000  -15.0942
 438.3828  145.9625  256.1250   22.5000  -33.7500   22.5000  -15.1437
 438.3828  145.9625  211.1250   22.5000  -11.2500   22.5000  -15.0726
 438.3828  145.9625  188.6250   22.5000  -11.2500   22.5000  -14.9673
 438.3828  145.9625  211.1250   22.5000  -33.7500   22.5000  -15.0359
 438.3828  145.9625  188.6250   22.5000  -33.7500   22.5000  -14.9950
 438.3828  145.9625  244.8750   45.0000  -56.2500   22.5000  -15.1099
 438.3828  145.9625  199.8750   45.0000  -56.2500   22.5000  -14.8383
 438.3828  145.9625  222.3750   90.0000  -78.7500   22.5000  -15.0357
 438.3828  145.9625  233.6250   22.5000   11.2500   22.5000  -15.1019
 438.3828  145.9625  256.1250   22.5000   11.2500   22.5000  -15.2242
 438.3828  145.9625  233.6250   22.5000   33.7500   22.5000  -15.0997
 438.3828  145.9625  256.1250   22.5000   33.7500   22.5000  -15.1686
 438.3828  145.9625  211.1250   22.5000   11.2500   22.5000  -15.0561
 438.3828  145.9625  188.6250   22.5000   11.2500   22.5000  -14.9191
 438.3828  145.9625  211.1250   22.5000   33.7500   22.5000  -15.1159
 438.3828  145.9625  188.6250   22.5000   33.7500   22.5000  -14.9212
 438.3828  145.9625  244.8750   45.0000   56.2500   22.5000  -15.2070
 438.3828  145.9625  199.8750   45.0000   56.2500   22.5000  -15.0888
 438.3828  145.9625  222.3750   90.0000   78.7500   22.5000  -15.2398
 438.3828  145.9625   53.6250   22.5000  -11.2500   22.5000  -15.2515
 438.3828  145.9625   76.1250   22.5000  -11.2500   22.5000  -15.2488
 438.3828  145.9625   53.6250   22.5000  -33.7500   22.5000  -15.1387
 438.3828  145.9625   76.1250   22.5000  -33.7500   22.5000  -15.1194
 438.3828  145.9625   31.1250   22.5000  -11.2500   22.5000  -15.3505
 438.3828  145.9625    8.6250   22.5000  -11.2500   22.5000  -15.3268
 438.3828  145.9625   31.1250   22.5000  -33.7500   22.5000  -15.3236
 438.3828  145.9625    8.6250   22.5000  -33.7500   22.5000  -15.3312
 438.3828  145.9625   64.8750   45.0000  -56.2500   22.5000  -14.8429
 438.3828  145.9625   19.8750   45.0000  -56.2500   22.5000  -15.1887
 438.3828  145.9625   42.3750   90.0000  -78.7500   22.5000  -15.0882
 438.3828  145.9625   53.6250   22.5000   11.2500   22.5000  -15.3060
 438.3828  145.9625   76.1250   22.5000   11.2500   22.5000  -15.2215
 438.3828  145.9625   53.6250   22.5000   33.7500   22.5000  -15.3680
 438.3828  145.9625   76.1250   22.5000   33.7500   22.5000  -15.2909
 438.3828  145.9625   31.1250   22.5000   11.2500   22.5000  -15.3572
 438.3828  145.9625    8.6250   22.5000   11.2500   22.5000  -15.4774
 438.3828  145.9625   31.1250   22.5000   33.7500   22.5000  -15.3394
 438.3828  145.9625    8.6250   22.5000   33.7500   22.5000  -15.3555
 438.3828  145.9625   64.8750   45.0000   56.2500   22.5000  -15.2726
 438.3828  145.9625   19.8750   45.0000   56.2500   22.5000  -15.2596
 438.3828  145.9625   42.3750   90.0000   78.7500   22.5000  -15.3200
 438.3828  145.9625  301.1250   22.5000  -11.2500   22.5000  -15.3107
 438.3828  145.9625  278.6250   22.5000  -11.2500   22.5000  -15.3107
 438.3828  145.9625  301.1250   22.5000  -33.7500   22.5000  -15.3198
 438.3828  145.9625  278.6250   22.5000  -33.7500   22.5000  -15.2476
 438.3828  145.9625  323.6250   22.5000  -11.2500   22.5000  -15.3436
 438.3828  145.9625  346.1250   22.5000  -11.2500   22.5000  -15.3719
 438.3828  145.9625  323.6250   22.5000  -33.7500   22.5000  -15.4020
 438.3828  145.9625  346.1250   22.5000  -33.7500   22.5000  -15.3198
 438.3828  145.9625  289.8750   45.0000  -56.2500   22.5000  -15.1653
 438.3828  145.9625  334.8750   45.0000  -56.2500   22.5000  -15.3030
 438.3828  145.9625  312.3750   90.0000  -78.7500   22.5000  -15.1554
 438.3828  145.9625  301.1250   22.5000   11.2500   22.5000  -15.3536
 438.3828  145.9625  278.6250   22.5000   11.2500   22.5000  -15.2488
 438.3828  145.9625  301.1250   22.5000   33.7500   22.5000  -15.3126
 438.3828  145.9625  278.6250   22.5000   33.7500   22.5000  -15.2285
 438.3828  145.9625  323.6250   22.5000   11.2500   22.5000  -15.3872
 438.3828  145.9625  346.1250   22.5000   11.2500   22.5000  -15.3990
 438.3828  145.9625  323.6250   22.5000   33.7500   22.5000  -15.3016
 438.3828  145.9625  346.1250   22.5000   33.7500   22.5000  -15.3896
 438.3828  145.9625  289.8750   45.0000   56.2500   22.5000  -15.2229
 438.3828  145.9625  334.8750   45.0000   56.2500   22.5000  -15.3086
 438.3828  145.9625  312.3750   90.0000   78.7500   22.5000  -15.2728
 608.0297  202.6221  121.8750   22.5000  -11.2500   22.5000  -15.7273
 608.0297  202.6221   99.3750   22.5000  -11.2500   22.5000  -15.8340
 608.0297  202.6221  121.8750   22.5000  -33.7500   22.5000  -15.7494
 608.0297  202.6221   99.3750   22.5000  -33.7500   22.5000  -15.8051
 608.0297  202.6221  144.3750   22.5000  -11.2500   22.5000  -15.2167
 608.0297  202.6221  166.8750   22.5000  -11.2500   22.5000  -15.5440
 608.0297  202.6221  144.3750   22.5000  -33.7500   22.5000  -15.6270
 608.0297  202.6221  166.8750   22.5000  -33.7500   22.5000  -15.4894
 608.0297  202.6221  110.6250   45.0000  -56.2500   22.5000  -15.5064
 608.0297  202.6221  155.6250   45.0000  -56.2500   22.5000  -15.5798
 608.0297  202.6221  133.1250   90.0000  -78.7500   22.5000  -15.7220
 608.0297  202.6221  121.8750   22.5000   11.2500   22.5000  -15.4129
 608.0297  202.6221   99.3750   22.5000   11.2500   22.5000  -15.8632
 608.0297  202.6221  121.8750   22.5000   33.7500   22.5000  -15.6918
 608.0297  202.6221   99.3750   22.5000   33.7500   22.5000  -15.9246
 608.0297  202.6221  144.3750   22.5000   11.2500   22.5000  -15.0194
 608.0297  202.6221  166.8750   22.5000   11.2500   22.5000  -15.3860
 608.0297  202.6221  144.3750   22.5000   33.7500   22.5000  -15.4662
 608.0297  202.6221  166.8750   22.5000   33.7500   22.5000  -15.3143
 608.0297  202.6221  110.6250   45.0000   56.2500   22.5000  -15.8418
 608.0297  202.6221  155.6250   45.0000   56.2500   22.5000  -15.7256
 608.0297  202.6221  133.1250   90.0000   78.7500   22.5000  -15.9130
 608.0297  202.6221  234.3750   22.5000  -11.2500   22.5000  -15.8340
 608.0297  202.6221  256.8750   22.5000  -11.2500   22.5000  -15.9607
 608.0297  202.6221  234.3750   22.5000  -33.7500   22.5000  -15.8832
 608.0297  202.6221  256.8750   22.5000  -33.7500   22.5000  -15.8112
 608.0297  202.6221  211.8750   22.5000  -11.2500   22.5000  -15.8803
 608.0297  202.6221  189.3750   22.5000  -11.2500   22.5000  -15.8178
 608.0297  202.6221  211.8750   22.5000  -33.7500   22.5000  -15.7764
 608.0297  202.6221  189.3750   22.5000  -33.7500   22.5000  -15.6685
 608.0297  202.6221  245.6250   45.0000  -56.2500   22.5000  -15.8429
 608.0297  202.6221  200.6250   45.0000  -56.2500   22.5000  -15.5566
 608.0297  202.6221  223.1250   90.0000  -78.7500   22.5000  -15.7752
 608.0297  202.6221  234.3750   22.5000   11.2500   22.5000  -15.8229
 608.0297  202.6221  256.8750   22.5000   11.2500   22.5000  -15.8121
 608.0297  202.6221  234.3750   22.5000   33.7500   22.5000  -15.8588
 608.0297  202.6221  256.8750   22.5000   33.7500   22.5000  -15.9407
 608.0297  202.6221  211.8750   22.5000   11.2500   22.5000  -15.8513
 608.0297  202.6221  189.3750   22.5000   11.2500   22.5000  -15.6561
 608.0297  202.6221  211.8750   22.5000   33.7500   22.5000  -15.7785
 608.0297  202.6221  189.3750   22.5000   33.7500   22.5000  -15.6080
 608.0297  202.6221  245.6250   45.0000   56.2500   22.5000  -15.8886
 608.0297  202.6221  200.6250   45.0000   56.2500   22.5000  -15.7532
 608.0297  202.6221  223.1250   90.0000   78.7500   22.5000  -15.9559
 608.0297  202.6221   54.3750   22.5000  -11.2500   22.5000  -16.0156
 608.0297  202.6221   76.8750   22.5000  -11.2500   22.5000  -15.9912
 608.0297  202.6221   54.3750   22.5000  -33.7500   22.5000  -15.8489
 608.0297  202.6221   76.8750   22.5000  -33.7500   22.5000  -15.8489
 608.0297  202.6221   31.8750   22.5000  -11.2500   22.5000  -15.9187
 608.0297  202.6221    9.3750   22.5000  -11.2500   22.5000  -16.0156
 608.0297  202.6221   31.8750   22.5000  -33.7500   22.5000  -16.0251
 608.0297  202.6221    9.3750   22.5000  -33.7500   22.5000  -15.9695
 608.0297  202.6221   65.6250   45.0000  -56.2500   22.5000  -15.5963
 608.0297  202.6221   20.6250   45.0000  -56.2500   22.5000  -15.9309
 608.0297  202.6221   43.1250   90.0000  -78.7500   22.5000  -15.8358
 608.0297  202.6221   54.3750   22.5000   11.2500   22.5000  -15.9647
 608.0297  202.6221   76.8750   22.5000   11.2500   22.5000  -16.0216
 608.0297  202.6221   54.3750   22.5000   33.7500   22.5000  -16.1087
 608.0297  202.6221   76.8750   22.5000   33.7500   22.5000  -15.9660
 608.0297  202.6221   31.8750   22.5000   11.2500   22.5000  -16.0871
 608.0297  202.6221    9.3750   22.5000   11.2500   22.5000  -16.0973
 608.0297  202.6221   31.8750   22.5000   33.7500   22.5000  -16.0630
 608.0297  202.6221    9.3750   22.5000   33.7500   22.5000  -16.0418
 608.0297  202.6221   65.6250   45.0000   56.2500   22.5000  -15.9178
 608.0297  202.6221   20.6250   45.0000   56.2500   22.5000  -16.0054
 608.0297  202.6221   43.1250   90.0000   78.7500   22.5000  -15.9735
 608.0297  202.6221  301.8750   22.5000  -11.2500   22.5000  -16.1188
 608.0297  202.6221  279.3750   22.5000  -11.2500   22.5000  -15.9463
 608.0297  202.6221  301.8750   22.5000  -33.7500   22.5000  -16.0251
 608.0297  202.6221  279.3750   22.5000  -33.7500   22.5000  -15.8296
 608.0297  202.6221  324.3750   22.5000  -11.2500   22.5000  -16.0326
 608.0297  202.6221  346.8750   22.5000  -11.2500   22.5000  -16.0784
 608.0297  202.6221  324.3750   22.5000  -33.7500   22.5000  -16.1003
 608.0297  202.6221  346.8750   22.5000  -33.7500   22.5000  -16.1370
 608.0297  202.6221  290.6250   45.0000  -56.2500   22.5000  -15.9188
 608.0297  202.6221  335.6250   45.0000  -56.2500   22.5000  -15.9309
 608.0297  202.6221  313.1250   90.0000  -78.7500   22.5000  -15.8670
 608.0297  202.6221  301.8750   22.5000   11.2500   22.5000  -16.1524
 608.0297  202.6221  279.3750   22.5000   11.2500   22.5000  -16.0973
 608.0297  202.6221  301.8750   22.5000   33.7500   22.5000  -15.9574
 608.0297  202.6221  279.3750   22.5000   33.7500   22.5000  -15.9407
 608.0297  202.6221  324.3750   22.5000   11.2500   22.5000  -16.1524
 608.0297  202.6221  346.8750   22.5000   11.2500   22.5000  -16.2154
 608.0297  202.6221  324.3750   22.5000   33.7500   22.5000  -16.0740
 608.0297  202.6221  346.8750   22.5000   33.7500   22.5000  -16.0522
 608.0297  202.6221  290.6250   45.0000   56.2500   22.5000  -15.9491
 608.0297  202.6221  335.6250   45.0000   56.2500   22.5000  -15.9657
 608.0297  202.6221  313.1250   90.0000   78.7500   22.5000  -15.9624
 843.6270  281.2651  122.6250   22.5000  -11.2500   22.5000  -16.4479
 843.6270  281.2651  100.1250   22.5000  -11.2500   22.5000  -16.6181
 843.6270  281.2651  122.6250   22.5000  -33.7500   22.5000  -16.6977
 843.6270  281.2651  100.1250   22.5000  -33.7500   22.5000  -16.6308
 843.6270  281.2651  145.1250   22.5000  -11.2500   22.5000  -16.1899
 843.6270  281.2651  167.6250   22.5000  -11.2500   22.5000  -16.2031
 843.6270  281.2651  145.1250   22.5000  -33.7500   22.5000  -16.4759
 843.6270  281.2651  167.6250   22.5000  -33.7500   22.5000  -16.2717
 843.6270  281.2651  111.3750   45.0000  -56.2500   22.5000  -16.5458
 843.6270  281.2651  156.3750   45.0000  -56.2500   22.5000  -16.2809
 843.6270  281.2651  133.8750   90.0000  -78.7500   22.5000  -16.4825
 843.6270  281.2651  122.6250   22.5000   11.2500   22.5000  -16.3148
 843.6270  281.2651  100.1250   22.5000   11.2500   22.5000  -16.5579
 843.6270  281.2651  122.6250   22.5000   33.7500   22.5000  -16.7190
 843.6270  281.2651  100.1250   22.5000   33.7500   22.5000  -16.6485
 843.6270  281.2651  145.1250   22.5000   11.2500   22.5000  -16.0412
 843.6270  281.2651  167.6250   22.5000   11.2500   22.5000  -16.2807
 843.6270  281.2651  145.1250   22.5000   33.7500   22.5000  -16.4581
 843.6270  281.2651  167.6250   22.5000   33.7500   22.5000  -16.1299
 843.6270  281.2651  111.3750   45.0000   56.2500   22.5000  -16.6098
 843.6270  281.2651  156.3750   45.0000   56.2500   22.5000  -16.4242
 843.6270  281.2651  133.8750   90.0000   78.7500   22.5000  -16.5681
 843.6270  281.2651  235.1250   22.5000  -11.2500   22.5000  -16.6939
 843.6270  281.2651  257.6250   22.5000  -11.2500   22.5000  -16.6011
 843.6270  281.2651  235.1250   22.5000  -33.7500   22.5000  -16.6520
 843.6270  281.2651  257.6250   22.5000  -33.7500   22.5000  -16.9116
 843.6270  281.2651  212.6250   22.5000  -11.2500   22.5000  -16.7373
 843.6270  281.2651  190.1250   22.5000  -11.2500   22.5000  -16.4250
 843.6270  281.2651  212.6250   22.5000  -33.7500   22.5000  -16.5913
 843.6270  281.2651  190.1250   22.5000  -33.7500   22.5000  -16.4758
 843.6270  281.2651  246.3750   45.0000  -56.2500   22.5000  -16.5458
 843.6270  281.2651  201.3750   45.0000  -56.2500   22.5000  -16.5726
 843.6270  281.2651  223.8750   90.0000  -78.7500   22.5000  -16.6442
 843.6270  281.2651  235.1250   22.5000   11.2500   22.5000  -16.6248
 843.6270  281.2651  257.6250   22.5000   11.2500   22.5000  -16.6828
 843.6270  281.2651  235.1250   22.5000   33.7500   22.5000  -16.6273
 843.6270  281.2651  257.6250   22.5000   33.7500   22.5000  -16.7190
 843.6270  281.2651  212.6250   22.5000   11.2500   22.5000  -16.6828
 843.6270  281.2651  190.1250   22.5000   11.2500   22.5000  -16.6071
 843.6270  281.2651  212.6250   22.5000   33.7500   22.5000  -16.5181
 843.6270  281.2651  190.1250   22.5000   33.7500   22.5000  -16.3584
 843.6270  281.2651  246.3750   45.0000   56.2500   22.5000  -16.5227
 843.6270  281.2651  201.3750   45.0000   56.2500   22.5000  -16.4501
 843.6270  281.2651  223.8750   90.0000   78.7500   22.5000  -16.6164
 843.6270  281.2651   55.1250   22.5000  -11.2500   22.5000  -16.7608
 843.6270  281.2651   77.6250   22.5000  -11.2500   22.5000  -16.9369
 843.6270  281.2651   55.1250   22.5000  -33.7500   22.5000  -16.6742
 843.6270  281.2651   77.6250   22.5000  -33.7500   22.5000  -16.7225
 843.6270  281.2651   32.6250   22.5000  -11.2500   22.5000  -16.8700
 843.6270  281.2651   10.1250   22.5000  -11.2500   22.5000  -16.7373
 843.6270  281.2651   32.6250   22.5000  -33.7500   22.5000  -16.8391
 843.6270  281.2651   10.1250   22.5000  -33.7500   22.5000  -16.9530
 843.6270  281.2651   66.3750   45.0000  -56.2500   22.5000  -16.5204
 843.6270  281.2651   21.3750   45.0000  -56.2500   22.5000  -16.7007
 843.6270  281.2651   43.8750   90.0000  -78.7500   22.5000  -16.5537
 843.6270  281.2651   55.1250   22.5000   11.2500   22.5000  -16.6433
 843.6270  281.2651   77.6250   22.5000   11.2500   22.5000  -16.8289
 843.6270  281.2651   55.1250   22.5000   33.7500   22.5000  -16.6942
 843.6270  281.2651   77.6250   22.5000   33.7500   22.5000  -16.7454
 843.6270  281.2651   32.6250   22.5000   11.2500   22.5000  -16.7746
 843.6270  281.2651   10.1250   22.5000   11.2500   22.5000  -16.7263
 843.6270  281.2651   32.6250   22.5000   33.7500   22.5000  -16.5693
 843.6270  281.2651   10.1250   22.5000   33.7500   22.5000  -16.9081
 843.6270  281.2651   66.3750   45.0000   56.2500   22.5000  -16.6720
 843.6270  281.2651   21.3750   45.0000   56.2500   22.5000  -16.7316
 843.6270  281.2651   43.8750   90.0000   78.7500   22.5000  -16.6320
 843.6270  281.2651  302.6250   22.5000  -11.2500   22.5000  -16.7373
 843.6270  281.2651  280.1250   22.5000  -11.2500   22.5000  -16.7150
 843.6270  281.2651  302.6250   22.5000  -33.7500   22.5000  -16.7769
 843.6270  281.2651  280.1250   22.5000  -33.7500   22.5000  -16.7769
 843.6270  281.2651  325.1250   22.5000  -11.2500   22.5000  -16.6543
 843.6270  281.2651  347.6250   22.5000  -11.2500   22.5000  -16.8120
 843.6270  281.2651  325.1250   22.5000  -33.7500   22.5000  -16.9116
 843.6270  281.2651  347.6250   22.5000  -33.7500   22.5000  -16.6977
 843.6270  281.2651  291.3750   45.0000  -56.2500   22.5000  -16.6650
 843.6270  281.2651  336.3750   45.0000  -56.2500   22.5000  -16.6113
 843.6270  281.2651  313.8750   90.0000  -78.7500   22.5000  -16.6550
 843.6270  281.2651  302.6250   22.5000   11.2500   22.5000  -16.7746
 843.6270  281.2651  280.1250   22.5000   11.2500   22.5000  -16.5579
 843.6270  281.2651  302.6250   22.5000   33.7500   22.5000  -16.7734
 843.6270  281.2651  280.1250   22.5000   33.7500   22.5000  -16.7190
 843.6270  281.2651  325.1250   22.5000   11.2500   22.5000  -16.9258
 843.6270  281.2651  347.6250   22.5000   11.2500   22.5000  -16.7498
 843.6270  281.2651  325.1250   22.5000   33.7500   22.5000  -16.8034
 843.6270  281.2651  347.6250   22.5000   33.7500   22.5000  -17.0464
 843.6270  281.2651  291.3750   45.0000   56.2500   22.5000  -16.7190
 843.6270  281.2651  336.3750   45.0000   56.2500   22.5000  -16.6503
 843.6270  281.2651  313.8750   90.0000   78.7500   22.5000  -16.6885
1170.5598  326.9329  123.3750   22.5000  -11.2500   22.5000  -17.4555
1170.5598  326.9329  100.8750   22.5000  -11.2500   22.5000  -17.3006
1170.5598  326.9329  123.3750   22.5000  -33.7500   22.5000  -17.4593
1170.5598  326.9329  100.8750   22.5000  -33.7500   22.5000  -17.3344
1170.5598  326.9329  145.8750   22.5000  -11.2500   22.5000  -17.2214
1170.5598  326.9329  168.3750   22.5000  -11.2500   22.5000  -16.6985
1170.5598  326.9329  145.8750   22.5000  -33.7500   22.5000  -17.7604
1170.5598  326.9329  168.3750   22.5000  -33.7500   22.5000  -16.6812
1170.5598  326.9329  112.1250   45.0000  -56.2500   22.5000  -17.3831
1170.5598  326.9329  157.1250   45.0000  -56.2500   22.5000  -16.9610
1170.5598  326.9329  134.6250   90.0000  -78.7500   22.5000  -17.0572
1170.5598  326.9329  123.3750   22.5000   11.2500   22.5000  -17.2103
1170.5598  326.9329  100.8750   22.5000   11.2500   22.5000  -17.1134
1170.5598  326.9329  123.3750   22.5000   33.7500   22.5000  -17.3309
1170.5598  326.9329  100.8750   22.5000   33.7500   22.5000  -17.5350
1170.5598  326.9329  145.8750   22.5000   11.2500   22.5000  -17.0591
1170.5598  326.9329  168.3750   22.5000   11.2500   22.5000  -16.6767
1170.5598  326.9329  145.8750   22.5000   33.7500   22.5000  -17.3309
1170.5598  326.9329  168.3750   22.5000   33.7500   22.5000  -16.8360
1170.5598  326.9329  112.1250   45.0000   56.2500   22.5000  -17.3434
1170.5598  326.9329  157.1250   45.0000   56.2500   22.5000  -16.9677
1170.5598  326.9329  134.6250   90.0000   78.7500   22.5000  -17.1771
1170.5598  326.9329  235.8750   22.5000  -11.2500   22.5000  -17.2592
1170.5598  326.9329  258.3750   22.5000  -11.2500   22.5000  -17.5224
1170.5598  326.9329  235.8750   22.5000  -33.7500   22.5000  -17.3924
1170.5598  326.9329  258.3750   22.5000  -33.7500   22.5000  -17.3344
1170.5598  326.9329  213.3750   22.5000  -11.2500   22.5000  -17.6985
1170.5598  326.9329  190.8750   22.5000  -11.2500   22.5000  -17.2214
1170.5598  326.9329  213.3750   22.5000  -33.7500   22.5000  -17.4593
1170.5598  326.9329  190.8750   22.5000  -33.7500   22.5000  -17.5385
1170.5598  326.9329  247.1250   45.0000  -56.2500   22.5000  -17.2505
1170.5598  326.9329  202.1250   45.0000  -56.2500   22.5000  -17.1868
1170.5598  326.9329  224.6250   90.0000  -78.7500   22.5000  -17.2985
1170.5598  326.9329  235.8750   22.5000   11.2500   22.5000  -17.3353
1170.5598  326.9329  258.3750   22.5000   11.2500   22.5000  -17.6875
1170.5598  326.9329  235.8750   22.5000   33.7500   22.5000  -17.2340
1170.5598  326.9329  258.3750   22.5000   33.7500   22.5000  -17.3889
1170.5598  326.9329  213.3750   22.5000   11.2500   22.5000  -17.3864
1170.5598  326.9329  190.8750   22.5000   11.2500   22.5000  -17.3353
1170.5598  326.9329  213.3750   22.5000   33.7500   22.5000  -17.4558
1170.5598  326.9329  190.8750   22.5000   33.7500   22.5000  -17.2340
1170.5598  326.9329  247.1250   45.0000   56.2500   22.5000  -17.2688
1170.5598  326.9329  202.1250   45.0000   56.2500   22.5000  -17.3434
1170.5598  326.9329  224.6250   90.0000   78.7500   22.5000  -17.3389
1170.5598  326.9329   55.8750   22.5000  -11.2500   22.5000  -17.3006
1170.5598  326.9329   78.3750   22.5000  -11.2500   22.5000  -17.6016
1170.5598  326.9329   55.8750   22.5000  -33.7500   22.5000  -17.2832
1170.5598  326.9329   78.3750   22.5000  -33.7500   22.5000  -17.1961
1170.5598  326.9329   33.3750   22.5000  -11.2500   22.5000  -17.9995
1170.5598  326.9329   10.8750   22.5000  -11.2500   22.5000  -17.5224
1170.5598  326.9329   33.3750   22.5000  -33.7500   22.5000  -17.3924
1170.5598  326.9329   10.8750   22.5000  -33.7500   22.5000  -17.7604
1170.5598  326.9329   67.1250   45.0000  -56.2500   22.5000  -17.3831
1170.5598  326.9329   22.1250   45.0000  -56.2500   22.5000  -17.2988
1170.5598  326.9329   44.6250   90.0000  -78.7500   22.5000  -17.4446
1170.5598  326.9329   55.8750   22.5000   11.2500   22.5000  -17.3864
1170.5598  326.9329   78.3750   22.5000   11.2500   22.5000  -17.0591
1170.5598  326.9329   55.8750   22.5000   33.7500   22.5000  -17.2797
1170.5598  326.9329   78.3750   22.5000   33.7500   22.5000  -17.5350
1170.5598  326.9329   33.3750   22.5000   11.2500   22.5000  -17.3864
1170.5598  326.9329   10.8750   22.5000   11.2500   22.5000  -17.5905
1170.5598  326.9329   33.3750   22.5000   33.7500   22.5000  -17.5350
1170.5598  326.9329   10.8750   22.5000   33.7500   22.5000  -17.5350
1170.5598  326.9329   67.1250   45.0000   56.2500   22.5000  -17.4684
1170.5598  326.9329   22.1250   45.0000   56.2500   22.5000  -17.4684
1170.5598  326.9329   44.6250   90.0000   78.7500   22.5000  -17.6262
1170.5598  326.9329  303.3750   22.5000  -11.2500   22.5000  -17.8235
1170.5598  326.9329  280.8750   22.5000  -11.2500   22.5000  -17.6985
1170.5598  326.9329  303.3750   22.5000  -33.7500   22.5000  -17.3924
1170.5598  326.9329  280.8750   22.5000  -33.7500   22.5000  -17.6354
1170.5598  326.9329  325.8750   22.5000  -11.2500   22.5000  -17.4555
1170.5598  326.9329  348.3750   22.5000  -11.2500   22.5000  -17.6985
1170.5598  326.9329  325.8750   22.5000  -33.7500   22.5000  -17.3924
1170.5598  326.9329  348.3750   22.5000  -33.7500   22.5000  -17.3924
1170.5598  326.9329  292.1250   45.0000  -56.2500   22.5000  -17.4153
1170.5598  326.9329  337.1250   45.0000  -56.2500   22.5000  -17.4879
1170.5598  326.9329  314.6250   90.0000  -78.7500   22.5000  -17.4446
1170.5598  326.9329  303.3750   22.5000   11.2500   22.5000  -17.6875
1170.5598  326.9329  280.8750   22.5000   11.2500   22.5000  -17.8124
1170.5598  326.9329  303.3750   22.5000   33.7500   22.5000  -17.4558
1170.5598  326.9329  280.8750   22.5000   33.7500   22.5000  -17.3309
1170.5598  326.9329  325.8750   22.5000   11.2500   22.5000  -17.2895
1170.5598  326.9329  348.3750   22.5000   11.2500   22.5000  -17.4444
1170.5598  326.9329  325.8750   22.5000   33.7500   22.5000  -17.7569
1170.5598  326.9329  348.3750   22.5000   33.7500   22.5000  -17.3309
1170.5598  326.9329  292.1250   45.0000   56.2500   22.5000  -17.5062
1170.5598  326.9329  337.1250   45.0000   56.2500   22.5000  -17.4684
1170.5598  326.9329  314.6250   90.0000   78.7500   22.5000  -17.5081
